"rt","stimulus","button_pressed","button_pressed_text","trial_type","trial_index","time_elapsed","internal_node_id","ID"
"7112.9000000000815","<span class=stimul>à</span>","0","Correct","html-button-response","0","7125","0.0-0.0-0.0","ss53lsfxnb"
"2321.9000000026426","<span class=stimul>où</span>","0","Correct","html-button-response","1","9451","0.0-0.0-0.1","ss53lsfxnb"
"862.6000000003842","<span class=stimul>la</span>","0","Correct","html-button-response","2","10319","0.0-0.0-0.2","ss53lsfxnb"
"647.4000000016531","<span class=stimul>au</span>","0","Correct","html-button-response","3","10970","0.0-0.0-0.3","ss53lsfxnb"
"361.3999999979569","<span class=stimul>tu</span>","0","Correct","html-button-response","4","11335","0.0-0.0-0.4","ss53lsfxnb"
"523.0000000010477","<span class=stimul>un</span>","0","Correct","html-button-response","5","11861","0.0-0.0-0.5","ss53lsfxnb"
"421.90000000118744","<span class=stimul>il</span>","0","Correct","html-button-response","6","12286","0.0-0.0-0.6","ss53lsfxnb"
"656.9999999992433","<span class=stimul>été</span>","0","Correct","html-button-response","7","12946","0.0-0.0-0.7","ss53lsfxnb"
"695.8000000013271","<span class=stimul>on</span>","0","Correct","html-button-response","8","13645","0.0-0.0-0.8","ss53lsfxnb"
"2181.2000000027183","<span class=stimul>mur</span>","0","Correct","html-button-response","9","15830","0.0-0.0-0.9","ss53lsfxnb"
"704.7999999995227","<span class=stimul>ni</span>","0","Correct","html-button-response","10","16538","0.0-0.0-0.10","ss53lsfxnb"
"503.0000000006112","<span class=stimul>sur</span>","0","Correct","html-button-response","11","17044","0.0-0.0-0.11","ss53lsfxnb"
"546.0999999995693","<span class=stimul>qui</span>","0","Correct","html-button-response","12","17594","0.0-0.0-0.12","ss53lsfxnb"
"504.19999999940046","<span class=stimul>vélo</span>","0","Correct","html-button-response","13","18101","0.0-0.0-0.13","ss53lsfxnb"
"512.5999999982014","<span class=stimul>par</span>","0","Correct","html-button-response","14","18617","0.0-0.0-0.14","ss53lsfxnb"
"746.500000001106","<span class=stimul>feu</span>","0","Correct","html-button-response","15","19367","0.0-0.0-0.15","ss53lsfxnb"
"496.9999999993888","<span class=stimul>ce</span>","0","Correct","html-button-response","16","19867","0.0-0.0-0.16","ss53lsfxnb"
"583.0999999998312","<span class=stimul>peur</span>","0","Correct","html-button-response","17","20454","0.0-0.0-0.17","ss53lsfxnb"
"636.3999999994121","<span class=stimul>ami</span>","0","Correct","html-button-response","18","21093","0.0-0.0-0.18","ss53lsfxnb"
"437.60000000111177","<span class=stimul>moto</span>","0","Correct","html-button-response","19","21535","0.0-0.0-0.19","ss53lsfxnb"
"521.100000001752","<span class=stimul>peau</span>","0","Correct","html-button-response","20","22059","0.0-0.0-0.20","ss53lsfxnb"
"723.7000000022817","<span class=stimul>lune</span>","0","Correct","html-button-response","21","22787","0.0-0.0-0.21","ss53lsfxnb"
"312.2000000003027","<span class=stimul>gare</span>","0","Correct","html-button-response","22","23102","0.0-0.0-0.22","ss53lsfxnb"
"429.20000000231084","<span class=stimul>lire</span>","0","Correct","html-button-response","23","23535","0.0-0.0-0.23","ss53lsfxnb"
"335.5999999985215","<span class=stimul>bon</span>","0","Correct","html-button-response","24","23874","0.0-0.0-0.24","ss53lsfxnb"
"362.4999999992724","<span class=stimul>mardi</span>","0","Correct","html-button-response","25","24240","0.0-0.0-0.25","ss53lsfxnb"
"362.8000000026077","<span class=stimul>col</span>","0","Correct","html-button-response","26","24606","0.0-0.0-0.26","ss53lsfxnb"
"371.59999999857973","<span class=stimul>avril</span>","0","Correct","html-button-response","27","24981","0.0-0.0-0.27","ss53lsfxnb"
"306.8999999995867","<span class=stimul>roi</span>","0","Correct","html-button-response","28","25291","0.0-0.0-0.28","ss53lsfxnb"
"303.7999999978638","<span class=stimul>faire</span>","0","Correct","html-button-response","29","25598","0.0-0.0-0.29","ss53lsfxnb"
"405.2000000010594","<span class=stimul>facile</span>","0","Correct","html-button-response","30","26007","0.0-0.0-0.30","ss53lsfxnb"
"480.40000000037253","<span class=stimul>cheval</span>","0","Correct","html-button-response","31","26491","0.0-0.0-0.31","ss53lsfxnb"
"430.1000000014028","<span class=stimul>vrai</span>","0","Correct","html-button-response","32","26924","0.0-0.0-0.32","ss53lsfxnb"
"403.90000000115833","<span class=stimul>ligne</span>","0","Correct","html-button-response","33","27331","0.0-0.0-0.33","ss53lsfxnb"
"456.39999999912106","<span class=stimul>porte</span>","0","Correct","html-button-response","34","27791","0.0-0.0-0.34","ss53lsfxnb"
"471.59999999712454","<span class=stimul>autre</span>","0","Correct","html-button-response","35","28266","0.0-0.0-0.35","ss53lsfxnb"
"436.7999999994936","<span class=stimul>loup</span>","0","Correct","html-button-response","36","28706","0.0-0.0-0.36","ss53lsfxnb"
"769.5999999996275","<span class=stimul>soir</span>","0","Correct","html-button-response","37","29479","0.0-0.0-0.37","ss53lsfxnb"
"545.7999999998719","<span class=stimul>page</span>","0","Correct","html-button-response","38","30028","0.0-0.0-0.38","ss53lsfxnb"
"479.20000000158325","<span class=stimul>raisin</span>","0","Correct","html-button-response","39","30511","0.0-0.0-0.39","ss53lsfxnb"
"819.5999999988999","<span class=stimul>car</span>","0","Correct","html-button-response","40","31335","0.0-0.0-0.40","ss53lsfxnb"
"393.8000000016473","<span class=stimul>sucre</span>","0","Correct","html-button-response","41","31732","0.0-0.0-0.41","ss53lsfxnb"
"339.2000000021653","<span class=stimul>chat</span>","0","Correct","html-button-response","42","32074","0.0-0.0-0.42","ss53lsfxnb"
"419.4000000024971","<span class=stimul>matin</span>","0","Correct","html-button-response","43","32497","0.0-0.0-0.43","ss53lsfxnb"
"447.1000000012282","<span class=stimul>trésor</span>","0","Correct","html-button-response","44","32948","0.0-0.0-0.44","ss53lsfxnb"
"548.9000000015949","<span class=stimul>soixante</span>","0","Correct","html-button-response","45","33500","0.0-0.0-0.45","ss53lsfxnb"
"394.1000000013446","<span class=stimul>lundi</span>","0","Correct","html-button-response","46","33898","0.0-0.0-0.46","ss53lsfxnb"
"361.800000002404","<span class=stimul>rose</span>","0","Correct","html-button-response","47","34263","0.0-0.0-0.47","ss53lsfxnb"
"496.19999999777065","<span class=stimul>visage</span>","0","Correct","html-button-response","48","34763","0.0-0.0-0.48","ss53lsfxnb"
"371.80000000080327","<span class=stimul>six</span>","0","Correct","html-button-response","49","35138","0.0-0.0-0.49","ss53lsfxnb"
"411.59999999945285","<span class=stimul>ciseau</span>","0","Correct","html-button-response","50","35553","0.0-0.0-0.50","ss53lsfxnb"
"462.8999999986263","<span class=stimul>août</span>","0","Correct","html-button-response","51","36019","0.0-0.0-0.51","ss53lsfxnb"
"519.1999999988184","<span class=stimul>pays</span>","0","Correct","html-button-response","52","36542","0.0-0.0-0.52","ss53lsfxnb"
"362.30000000068685","<span class=stimul>balai</span>","0","Correct","html-button-response","53","36907","0.0-0.0-0.53","ss53lsfxnb"
"496.19999999777065","<span class=stimul>fille</span>","0","Correct","html-button-response","54","37407","0.0-0.0-0.54","ss53lsfxnb"
"745.8000000005995","<span class=stimul>sept</span>","0","Correct","html-button-response","55","38156","0.0-0.0-0.55","ss53lsfxnb"
"445.5999999991036","<span class=stimul>lourd</span>","0","Correct","html-button-response","56","38605","0.0-0.0-0.56","ss53lsfxnb"
"521.5000000025611","<span class=stimul>femme</span>","0","Correct","html-button-response","57","39130","0.0-0.0-0.57","ss53lsfxnb"
"745.3000000023167","<span class=stimul>garage</span>","0","Correct","html-button-response","58","39880","0.0-0.0-0.58","ss53lsfxnb"
"643.6000000030617","<span class=stimul>hibou</span>","0","Correct","html-button-response","59","40528","0.0-0.0-0.59","ss53lsfxnb"
"","","","","html-button-response","60","60001","0.0-1.0","ss53lsfxnb"
