"rt","stimulus","button_pressed","button_pressed_text","trial_type","trial_index","time_elapsed","internal_node_id","ID"
"15303.400000000693","<p> <span class= bienv>Bienvenue !</p>","0","Commencer","html-button-response","0","15314","0.0-0.0","h08w0scdon"
"1026.000000001659"," ","1","9","html-button-response","1","16346","0.0-1.0","h08w0scdon"
"1117.3000000017055"," ","1","6","html-button-response","2","17466","0.0-2.0","h08w0scdon"
"1020.8000000020547"," ","0","5","html-button-response","3","18490","0.0-3.0","h08w0scdon"
"1011.6000000016356"," ","0","3","html-button-response","4","19505","0.0-4.0","h08w0scdon"
"1019.1999999988184"," ","0","4","html-button-response","5","20527","0.0-5.0","h08w0scdon"
"945.8999999988009"," ","1","5","html-button-response","6","21476","0.0-6.0","h08w0scdon"
"1060.1999999998952"," ","1","6","html-button-response","7","22539","0.0-7.0","h08w0scdon"
"921.2999999981548"," ","0","8","html-button-response","8","23464","0.0-8.0","h08w0scdon"
"976.3999999995576"," ","1","7","html-button-response","9","24443","0.0-9.0","h08w0scdon"
"998.9999999997963"," ","0","2","html-button-response","10","25445","0.0-10.0","h08w0scdon"
"1099.6999999988475"," ","0","6","html-button-response","11","26548","0.0-11.0","h08w0scdon"
"965.7999999981257"," ","1","4","html-button-response","12","27517","0.0-12.0","h08w0scdon"
"941.900000001624"," ","0","9","html-button-response","13","28462","0.0-13.0","h08w0scdon"
"961.4000000001397"," ","1","8","html-button-response","14","29426","0.0-14.0","h08w0scdon"
"992.6000000014028"," ","1","5","html-button-response","15","30422","0.0-15.0","h08w0scdon"
"1000"," ","0","7","html-button-response","16","31426","0.0-16.0","h08w0scdon"
"1633.2000000002154"," ","1","9","html-button-response","17","33062","0.0-17.0","h08w0scdon"
"1041.6000000004715"," ","0","7","html-button-response","18","34107","0.0-18.0","h08w0scdon"
"945.5999999991036"," ","0","5","html-button-response","19","35055","0.0-19.0","h08w0scdon"
"926.5999999988708"," ","1","9","html-button-response","20","35985","0.0-20.0","h08w0scdon"
"934.6999999979744"," ","1","4","html-button-response","21","36923","0.0-21.0","h08w0scdon"
"976.5999999981432"," ","0","8","html-button-response","22","37902","0.0-22.0","h08w0scdon"
"919.2999999977474"," ","1","2","html-button-response","23","38825","0.0-23.0","h08w0scdon"
"1024.9000000003434"," ","0","4","html-button-response","24","39853","0.0-24.0","h08w0scdon"
"985.899999999674"," ","1","6","html-button-response","25","40842","0.0-25.0","h08w0scdon"
"969.2999999970198"," ","0","8","html-button-response","26","41814","0.0-26.0","h08w0scdon"
"985.899999999674"," ","1","9","html-button-response","27","42803","0.0-27.0","h08w0scdon"
"1165.9999999974389"," ","1","5","html-button-response","28","43973","0.0-28.0","h08w0scdon"
"1016.7999999976018"," ","0","6","html-button-response","29","44993","0.0-29.0","h08w0scdon"
"960.2999999988242"," ","1","7","html-button-response","30","45970","0.0-30.0","h08w0scdon"
"1045.300000001589"," ","1","6","html-button-response","31","47018","0.0-31.0","h08w0scdon"
"1034.7000000001572"," ","0","4","html-button-response","32","48056","0.0-32.0","h08w0scdon"
"1002.4000000012165"," ","0","2","html-button-response","33","49063","0.0-33.0","h08w0scdon"
"1103.6000000021886"," ","0","9","html-button-response","34","50170","0.0-34.0","h08w0scdon"
"1113.4000000020023"," ","1","5","html-button-response","35","51286","0.0-35.0","h08w0scdon"
"829.9000000006345"," ","0","8","html-button-response","36","52119","0.0-36.0","h08w0scdon"
"977.2000000011758"," ","1","3","html-button-response","37","53099","0.0-37.0","h08w0scdon"
"1041.3000000007742"," ","1","7","html-button-response","38","54143","0.0-38.0","h08w0scdon"
"923.0999999999767"," ","0","9","html-button-response","39","55070","0.0-39.0","h08w0scdon"
"919.3000000013853"," ","1","8","html-button-response","40","55992","0.0-40.0","h08w0scdon"
"959.0000000025611"," ","0","6","html-button-response","41","56954","0.0-41.0","h08w0scdon"
"1017.7000000003318"," ","0","5","html-button-response","42","57975","0.0-42.0","h08w0scdon"
"970.0000000011642"," ","0","7","html-button-response","43","58948","0.0-43.0","h08w0scdon"
"884.9000000009255"," ","1","5","html-button-response","44","59837","0.0-44.0","h08w0scdon"
"951.4999999992142"," ","1","9","html-button-response","45","60791","0.0-45.0","h08w0scdon"
"864.1999999999825"," ","0","4","html-button-response","46","61658","0.0-46.0","h08w0scdon"
"1001.299999999901"," ","0","9","html-button-response","47","62663","0.0-47.0","h08w0scdon"
"860.5999999999767"," ","1","8","html-button-response","48","63526","0.0-48.0","h08w0scdon"
"971.0999999988417"," ","1","4","html-button-response","49","64500","0.0-49.0","h08w0scdon"
"876.3999999973748"," ","1","6","html-button-response","50","65380","0.0-50.0","h08w0scdon"
"862.0000000009895"," ","0","5","html-button-response","51","66245","0.0-51.0","h08w0scdon"
"1033.6000000024796"," ","0","9","html-button-response","52","67282","0.0-52.0","h08w0scdon"
"1084.9999999991269"," ","0","5","html-button-response","53","68370","0.0-53.0","h08w0scdon"
"894.0999999977066"," ","1","2","html-button-response","54","69267","0.0-54.0","h08w0scdon"
"983.1000000012864"," ","0","7","html-button-response","55","70254","0.0-55.0","h08w0scdon"
"851.9000000014785"," ","1","9","html-button-response","56","71109","0.0-56.0","h08w0scdon"
"852.999999999156"," ","0","8","html-button-response","57","71965","0.0-57.0","h08w0scdon"
"1125.2999999996973"," ","0","6","html-button-response","58","73095","0.0-58.0","h08w0scdon"
"854.8999999984517"," ","1","7","html-button-response","59","73955","0.0-59.0","h08w0scdon"
"992.5999999977648"," ","1","3","html-button-response","60","74950","0.0-60.0","h08w0scdon"
"23647.899999999936","<p> C'est terminé ! Votre identifaint était :</p>h08w0scdon","0","Save","html-button-response","61","98601","0.0-61.0","h08w0scdon"
