"rt","stimulus","button_pressed","button_pressed_text","trial_type","trial_index","time_elapsed","internal_node_id","ID"
"2341.999999996915","<span class=stimul>à</span>","0","Correct","html-button-response","0","2352","0.0-0.0-0.0","97ts0y702d"
"512.6999999993131","<span class=stimul>où</span>","0","Correct","html-button-response","1","2870","0.0-0.0-0.1","97ts0y702d"
"3013.699999999517","<span class=stimul>la</span>","0","Correct","html-button-response","2","5887","0.0-0.0-0.2","97ts0y702d"
"920.9999999984575","<span class=stimul>au</span>","0","Correct","html-button-response","3","6812","0.0-0.0-0.3","97ts0y702d"
"497.0999999968626","<span class=stimul>tu</span>","0","Correct","html-button-response","4","7312","0.0-0.0-0.4","97ts0y702d"
"388.200000001234","<span class=stimul>un</span>","0","Correct","html-button-response","5","7705","0.0-0.0-0.5","97ts0y702d"
"358.7999999981548","<span class=stimul>il</span>","0","Correct","html-button-response","6","8068","0.0-0.0-0.6","97ts0y702d"
"322.0999999975902","<span class=stimul>été</span>","0","Correct","html-button-response","7","8393","0.0-0.0-0.7","97ts0y702d"
"364.000000001397","<span class=stimul>on</span>","0","Correct","html-button-response","8","8761","0.0-0.0-0.8","97ts0y702d"
"353.89999999824795","<span class=stimul>mur</span>","0","Correct","html-button-response","9","9118","0.0-0.0-0.9","97ts0y702d"
"370.9000000017113","<span class=stimul>ni</span>","0","Correct","html-button-response","10","9492","0.0-0.0-0.10","97ts0y702d"
"446.49999999819556","<span class=stimul>sur</span>","0","Correct","html-button-response","11","9942","0.0-0.0-0.11","97ts0y702d"
"352.39999999976135","<span class=stimul>qui</span>","0","Correct","html-button-response","12","10298","0.0-0.0-0.12","97ts0y702d"
"387.9000000015367","<span class=stimul>vélo</span>","0","Correct","html-button-response","13","10689","0.0-0.0-0.13","97ts0y702d"
"1677.1000000007916","<span class=stimul>par</span>","0","Correct","html-button-response","14","12369","0.0-0.0-0.14","97ts0y702d"
"690.8000000003085","<span class=stimul>feu</span>","0","Correct","html-button-response","15","13063","0.0-0.0-0.15","97ts0y702d"
"349.50000000026193","<span class=stimul>ce</span>","0","Correct","html-button-response","16","13416","0.0-0.0-0.16","97ts0y702d"
"355.29999999926076","<span class=stimul>peur</span>","0","Correct","html-button-response","17","13774","0.0-0.0-0.17","97ts0y702d"
"353.6000000021886","<span class=stimul>ami</span>","0","Correct","html-button-response","18","14132","0.0-0.0-0.18","97ts0y702d"
"430.1000000014028","<span class=stimul>moto</span>","0","Correct","html-button-response","19","14565","0.0-0.0-0.19","97ts0y702d"
"431.1999999990803","<span class=stimul>peau</span>","0","Correct","html-button-response","20","14999","0.0-0.0-0.20","97ts0y702d"
"545.2000000004773","<span class=stimul>lune</span>","0","Correct","html-button-response","21","15548","0.0-0.0-0.21","97ts0y702d"
"521.3999999978114","<span class=stimul>gare</span>","0","Correct","html-button-response","22","16073","0.0-0.0-0.22","97ts0y702d"
"661.7000000005646","<span class=stimul>lire</span>","0","Correct","html-button-response","23","16738","0.0-0.0-0.23","97ts0y702d"
"611.8999999998778","<span class=stimul>bon</span>","0","Correct","html-button-response","24","17353","0.0-0.0-0.24","97ts0y702d"
"1086.8000000009488","<span class=stimul>mardi</span>","0","Correct","html-button-response","25","18443","0.0-0.0-0.25","97ts0y702d"
"695.1999999982945","<span class=stimul>col</span>","0","Correct","html-button-response","26","19142","0.0-0.0-0.26","97ts0y702d"
"431.40000000130385","<span class=stimul>avril</span>","0","Correct","html-button-response","27","19576","0.0-0.0-0.27","97ts0y702d"
"688.3000000016182","<span class=stimul>roi</span>","0","Correct","html-button-response","28","20268","0.0-0.0-0.28","97ts0y702d"
"809.6999999979744","<span class=stimul>faire</span>","0","Correct","html-button-response","29","21081","0.0-0.0-0.29","97ts0y702d"
"737.9000000000815","<span class=stimul>facile</span>","0","Correct","html-button-response","30","21822","0.0-0.0-0.30","97ts0y702d"
"746.6000000022177","<span class=stimul>cheval</span>","0","Correct","html-button-response","31","22572","0.0-0.0-0.31","97ts0y702d"
"661.7000000005646","<span class=stimul>vrai</span>","0","Correct","html-button-response","32","23237","0.0-0.0-0.32","97ts0y702d"
"722.69999999844","<span class=stimul>ligne</span>","0","Correct","html-button-response","33","23963","0.0-0.0-0.33","97ts0y702d"
"685.7999999992899","<span class=stimul>porte</span>","0","Correct","html-button-response","34","24652","0.0-0.0-0.34","97ts0y702d"
"677.400000000489","<span class=stimul>autre</span>","0","Correct","html-button-response","35","25333","0.0-0.0-0.35","97ts0y702d"
"775.9000000005472","<span class=stimul>loup</span>","0","Correct","html-button-response","36","26112","0.0-0.0-0.36","97ts0y702d"
"869.3999999995867","<span class=stimul>soir</span>","0","Correct","html-button-response","37","26985","0.0-0.0-0.37","97ts0y702d"
"669.0999999991618","<span class=stimul>page</span>","0","Correct","html-button-response","38","27657","0.0-0.0-0.38","97ts0y702d"
"1761.0999999997148","<span class=stimul>raisin</span>","1","Incorrect","html-button-response","39","29422","0.0-0.0-0.39","97ts0y702d"
"619.3999999995867","<span class=stimul>car</span>","0","Correct","html-button-response","40","30045","0.0-0.0-0.40","97ts0y702d"
"1012.5999999982014","<span class=stimul>sucre</span>","0","Correct","html-button-response","41","31061","0.0-0.0-0.41","97ts0y702d"
"542.9999999978463","<span class=stimul>chat</span>","0","Correct","html-button-response","42","31608","0.0-0.0-0.42","97ts0y702d"
"518.7999999980093","<span class=stimul>matin</span>","0","Correct","html-button-response","43","32130","0.0-0.0-0.43","97ts0y702d"
"579.4000000023516","<span class=stimul>trésor</span>","0","Correct","html-button-response","44","32713","0.0-0.0-0.44","97ts0y702d"
"804.7000000005937","<span class=stimul>soixante</span>","0","Correct","html-button-response","45","33521","0.0-0.0-0.45","97ts0y702d"
"624.8999999988882","<span class=stimul>lundi</span>","0","Correct","html-button-response","46","34149","0.0-0.0-0.46","97ts0y702d"
"620.8000000005995","<span class=stimul>rose</span>","0","Correct","html-button-response","47","34773","0.0-0.0-0.47","97ts0y702d"
"900.3999999986263","<span class=stimul>visage</span>","0","Correct","html-button-response","48","35677","0.0-0.0-0.48","97ts0y702d"
"711.4999999976135","<span class=stimul>six</span>","0","Correct","html-button-response","49","36392","0.0-0.0-0.49","97ts0y702d"
"694.1999999980908","<span class=stimul>ciseau</span>","0","Correct","html-button-response","50","37090","0.0-0.0-0.50","97ts0y702d"
"735.4000000013912","<span class=stimul>août</span>","0","Correct","html-button-response","51","37828","0.0-0.0-0.51","97ts0y702d"
"887.2000000010303","<span class=stimul>pays</span>","0","Correct","html-button-response","52","38719","0.0-0.0-0.52","97ts0y702d"
"593.8999999998487","<span class=stimul>balai</span>","0","Correct","html-button-response","53","39316","0.0-0.0-0.53","97ts0y702d"
"402.00000000186265","<span class=stimul>fille</span>","0","Correct","html-button-response","54","39722","0.0-0.0-0.54","97ts0y702d"
"514.3000000025495","<span class=stimul>sept</span>","0","Correct","html-button-response","55","40239","0.0-0.0-0.55","97ts0y702d"
"704.8000000031607","<span class=stimul>lourd</span>","0","Correct","html-button-response","56","40947","0.0-0.0-0.56","97ts0y702d"
"774.8999999967054","<span class=stimul>femme</span>","0","Correct","html-button-response","57","41726","0.0-0.0-0.57","97ts0y702d"
"794.2000000002736","<span class=stimul>garage</span>","0","Correct","html-button-response","58","42523","0.0-0.0-0.58","97ts0y702d"
"746.1000000002969","<span class=stimul>hibou</span>","0","Correct","html-button-response","59","43274","0.0-0.0-0.59","97ts0y702d"
"","","","","html-button-response","60","60003","0.0-1.0","97ts0y702d"
