"rt","stimulus","button_pressed","button_pressed_text","trial_type","trial_index","time_elapsed","internal_node_id","ID"
"1273.9000000001397","<span class=stimul>o</span>","0","Correct","html-button-response","0","1281","0.0-0.0-0.0","97fwq4mzda"
"323.2000000025437","<span class=stimul>i</span>","0","Correct","html-button-response","1","1609","0.0-0.0-0.1","97fwq4mzda"
"1472.7999999995518","<span class=stimul>bi</span>","0","Correct","html-button-response","2","3085","0.0-0.0-0.2","97fwq4mzda"
"892.2999999995227","<span class=stimul>ul</span>","0","Correct","html-button-response","3","3981","0.0-0.0-0.3","97fwq4mzda"
"526.7999999996391","<span class=stimul>til</span>","0","Correct","html-button-response","4","4511","0.0-0.0-0.4","97fwq4mzda"
"678.8999999989755","<span class=stimul>ja</span>","0","Correct","html-button-response","5","5193","0.0-0.0-0.5","97fwq4mzda"
"933.8999999999942","<span class=stimul>ol</span>","0","Correct","html-button-response","6","6130","0.0-0.0-0.6","97fwq4mzda"
"1007.8999999968801","<span class=stimul>ata</span>","0","Correct","html-button-response","7","7141","0.0-0.0-0.7","97fwq4mzda"
"752.0999999978812","<span class=stimul>dik</span>","0","Correct","html-button-response","8","7897","0.0-0.0-0.8","97fwq4mzda"
"673.0000000025029","<span class=stimul>nar</span>","0","Correct","html-button-response","9","8573","0.0-0.0-0.9","97fwq4mzda"
"702.2999999971944","<span class=stimul>vaf</span>","0","Correct","html-button-response","10","9279","0.0-0.0-0.10","97fwq4mzda"
"682.0000000006985","<span class=stimul>zou</span>","0","Correct","html-button-response","11","9964","0.0-0.0-0.11","97fwq4mzda"
"1047.6000000016938","<span class=stimul>dul</span>","0","Correct","html-button-response","12","11015","0.0-0.0-0.12","97fwq4mzda"
"757.5999999971827","<span class=stimul>lévo</span>","0","Correct","html-button-response","13","11777","0.0-0.0-0.13","97fwq4mzda"
"2108.200000002398","<span class=stimul>tur</span>","0","Correct","html-button-response","14","13888","0.0-0.0-0.14","97fwq4mzda"
"758.2000000002154","<span class=stimul>veur</span>","0","Correct","html-button-response","15","14650","0.0-0.0-0.15","97fwq4mzda"
"691.3999999997031","<span class=stimul>col</span>","0","Correct","html-button-response","16","15345","0.0-0.0-0.16","97fwq4mzda"
"875.4000000008091","<span class=stimul>noil</span>","0","Correct","html-button-response","17","16223","0.0-0.0-0.17","97fwq4mzda"
"609.8999999994703","<span class=stimul>opa</span>","0","Correct","html-button-response","18","16837","0.0-0.0-0.18","97fwq4mzda"
"470.79999999914435","<span class=stimul>jal</span>","0","Correct","html-button-response","19","17311","0.0-0.0-0.19","97fwq4mzda"
"467.89999999964493","<span class=stimul>neau</span>","0","Correct","html-button-response","20","17782","0.0-0.0-0.20","97fwq4mzda"
"537.1000000013737","<span class=stimul>timé</span>","0","Correct","html-button-response","21","18323","0.0-0.0-0.21","97fwq4mzda"
"641.299999999319","<span class=stimul>cal</span>","0","Correct","html-button-response","22","18968","0.0-0.0-0.22","97fwq4mzda"
"601.8000000003667","<span class=stimul>tibe</span>","0","Correct","html-button-response","23","19573","0.0-0.0-0.23","97fwq4mzda"
"735.5999999999767","<span class=stimul>lupe</span>","0","Correct","html-button-response","24","20312","0.0-0.0-0.24","97fwq4mzda"
"857.1000000010827","<span class=stimul>pirde</span>","0","Correct","html-button-response","25","21172","0.0-0.0-0.25","97fwq4mzda"
"778.4999999967113","<span class=stimul>gor</span>","0","Correct","html-button-response","26","21954","0.0-0.0-0.26","97fwq4mzda"
"743.399999999383","<span class=stimul>ablir</span>","0","Correct","html-button-response","27","22701","0.0-0.0-0.27","97fwq4mzda"
"691.3999999997031","<span class=stimul>sar</span>","0","Correct","html-button-response","28","23396","0.0-0.0-0.28","97fwq4mzda"
"1863.3000000008906","<span class=stimul>vaipe</span>","0","Correct","html-button-response","29","25263","0.0-0.0-0.29","97fwq4mzda"
"627.7999999983876","<span class=stimul>cifale</span>","0","Correct","html-button-response","30","25894","0.0-0.0-0.30","97fwq4mzda"
"608.700000000681","<span class=stimul>sapir</span>","0","Correct","html-button-response","31","26506","0.0-0.0-0.31","97fwq4mzda"
"692.800000000716","<span class=stimul>vro</span>","0","Correct","html-button-response","32","27202","0.0-0.0-0.32","97fwq4mzda"
"700.3999999978987","<span class=stimul>rigne</span>","0","Correct","html-button-response","33","27906","0.0-0.0-0.33","97fwq4mzda"
"510.09999999951106","<span class=stimul>rosan</span>","0","Correct","html-button-response","34","28419","0.0-0.0-0.34","97fwq4mzda"
"728.000000002794","<span class=stimul>aubre</span>","0","Correct","html-button-response","35","29151","0.0-0.0-0.35","97fwq4mzda"
"788.0000000004657","<span class=stimul>talpe</span>","0","Correct","html-button-response","36","29942","0.0-0.0-0.36","97fwq4mzda"
"758.5999999973865","<span class=stimul>gur</span>","0","Correct","html-button-response","37","30704","0.0-0.0-0.37","97fwq4mzda"
"1455.500000000029","<span class=stimul>louré</span>","1","Incorrect","html-button-response","38","32163","0.0-0.0-0.38","97fwq4mzda"
"848.5000000000582","<span class=stimul>ragife</span>","0","Correct","html-button-response","39","33015","0.0-0.0-0.39","97fwq4mzda"
"1279.899999997724","<span class=stimul>noge</span>","0","Correct","html-button-response","40","34299","0.0-0.0-0.40","97fwq4mzda"
"1279.8000000002503","<span class=stimul>tope</span>","0","Correct","html-button-response","41","35582","0.0-0.0-0.41","97fwq4mzda"
"1128.6999999974796","<span class=stimul>uché</span>","0","Correct","html-button-response","42","36714","0.0-0.0-0.42","97fwq4mzda"
"791.9000000001688","<span class=stimul>truson</span>","0","Correct","html-button-response","43","37509","0.0-0.0-0.43","97fwq4mzda"
"1866.3000000015018","<span class=stimul>ranli</span>","0","Correct","html-button-response","44","39379","0.0-0.0-0.44","97fwq4mzda"
"1229.299999999057","<span class=stimul>tosir</span>","1","Incorrect","html-button-response","45","40612","0.0-0.0-0.45","97fwq4mzda"
"872.6000000024214","<span class=stimul>poitade</span>","0","Correct","html-button-response","46","41488","0.0-0.0-0.46","97fwq4mzda"
"4018.400000000838","<span class=stimul>ousir</span>","0","Correct","html-button-response","47","45510","0.0-0.0-0.47","97fwq4mzda"
"1717.000000000553","<span class=stimul>bapre</span>","0","Correct","html-button-response","48","47230","0.0-0.0-0.48","97fwq4mzda"
"1541.4999999993597","<span class=stimul>gigne</span>","0","Correct","html-button-response","49","48775","0.0-0.0-0.49","97fwq4mzda"
"1745.8000000005995","<span class=stimul>gésin</span>","0","Correct","html-button-response","50","50524","0.0-0.0-0.50","97fwq4mzda"
"1195.9999999999127","<span class=stimul>kraulir</span>","0","Correct","html-button-response","51","51724","0.0-0.0-0.51","97fwq4mzda"
"1063.9999999984866","<span class=stimul>cibe</span>","0","Correct","html-button-response","52","52791","0.0-0.0-0.52","97fwq4mzda"
"865.9000000006927","<span class=stimul>maipe</span>","0","Correct","html-button-response","53","53661","0.0-0.0-0.53","97fwq4mzda"
"922.1999999972468","<span class=stimul>ligase</span>","0","Correct","html-button-response","54","54586","0.0-0.0-0.54","97fwq4mzda"
"1120.6999999994878","<span class=stimul>gofi</span>","0","Correct","html-button-response","55","55711","0.0-0.0-0.55","97fwq4mzda"
"790.4000000016822","<span class=stimul>cipre</span>","0","Correct","html-button-response","56","56505","0.0-0.0-0.56","97fwq4mzda"
"784.2000000018743","<span class=stimul>tasin</span>","0","Correct","html-button-response","57","57292","0.0-0.0-0.57","97fwq4mzda"
"1161.2000000022817","<span class=stimul>cipé</span>","0","Correct","html-button-response","58","58457","0.0-0.0-0.58","97fwq4mzda"
"","","","","html-button-response","59","60002","0.0-0.0-0.59","97fwq4mzda"
