[{"success":true,"trial_type":"fullscreen","trial_index":0,"time_elapsed":5946559,"internal_node_id":"0.0-0.0","ID":"8cg5pj16km"},{"results":[{"id":"train-images","shape":"3","outlier_type":"NA","choice":2,"outlierPosition":2,"success":true,"majorityOfMostRegularShapes":"NA","rt":1387.2999999984168,"rot1":-15,"rot2":15,"rot3":5,"rot4":-5,"rot5":25,"rot6":-25,"dil1":0.875,"dil2":1.075,"dil3":0.975,"dil4":1.025,"dil5":0.925,"dil6":1.125,"rots":[-15,15,5,-5,25,-25],"dils":[0.875,1.075,0.975,1.025,0.925,1.125],"loop_number":1,"everTouched":null},{"id":"train-images","shape":"9","outlier_type":"NA","choice":2,"outlierPosition":2,"success":true,"majorityOfMostRegularShapes":"NA","rt":1127.3000000000466,"rot1":15,"rot2":25,"rot3":-25,"rot4":-5,"rot5":-15,"rot6":5,"dil1":0.875,"dil2":1.075,"dil3":0.975,"dil4":0.925,"dil5":1.125,"dil6":1.025,"rots":[15,25,-25,-5,-15,5],"dils":[0.875,1.075,0.975,0.925,1.125,1.025],"loop_number":1,"everTouched":null},{"id":"train-images","shape":"7","outlier_type":"NA","choice":5,"outlierPosition":5,"success":true,"majorityOfMostRegularShapes":"NA","rt":867.3999999992084,"rot1":-15,"rot2":15,"rot3":5,"rot4":-5,"rot5":-25,"rot6":25,"dil1":0.925,"dil2":0.875,"dil3":1.025,"dil4":1.125,"dil5":1.075,"dil6":0.975,"rots":[-15,15,5,-5,-25,25],"dils":[0.925,0.875,1.025,1.125,1.075,0.975],"loop_number":1,"everTouched":null},{"id":"train-images","shape":"8","outlier_type":"NA","choice":1,"outlierPosition":1,"success":true,"majorityOfMostRegularShapes":"NA","rt":839.7000000004191,"rot1":-5,"rot2":5,"rot3":15,"rot4":-15,"rot5":25,"rot6":-25,"dil1":0.875,"dil2":0.975,"dil3":1.125,"dil4":1.075,"dil5":0.925,"dil6":1.025,"rots":[-5,5,15,-15,25,-25],"dils":[0.875,0.975,1.125,1.075,0.925,1.025],"loop_number":1,"everTouched":null},{"id":"train-images","shape":"10","outlier_type":"NA","choice":4,"outlierPosition":4,"success":true,"majorityOfMostRegularShapes":"NA","rt":797.6999999991385,"rot1":-5,"rot2":25,"rot3":-15,"rot4":5,"rot5":15,"rot6":-25,"dil1":1.075,"dil2":0.925,"dil3":0.975,"dil4":1.125,"dil5":1.025,"dil6":0.875,"rots":[-5,25,-15,5,15,-25],"dils":[1.075,0.925,0.975,1.125,1.025,0.875],"loop_number":1,"everTouched":null},{"id":"train-images","shape":"2","outlier_type":"NA","choice":3,"outlierPosition":3,"success":true,"majorityOfMostRegularShapes":"NA","rt":889.6999999997206,"rot1":25,"rot2":-5,"rot3":15,"rot4":5,"rot5":-15,"rot6":-25,"dil1":0.875,"dil2":0.975,"dil3":0.925,"dil4":1.025,"dil5":1.125,"dil6":1.075,"rots":[25,-5,15,5,-15,-25],"dils":[0.875,0.975,0.925,1.025,1.125,1.075],"loop_number":1,"everTouched":null},{"id":"train-images","shape":"1","outlier_type":"NA","choice":3,"outlierPosition":3,"success":true,"majorityOfMostRegularShapes":"NA","rt":863.4999999995343,"rot1":15,"rot2":-5,"rot3":-15,"rot4":-25,"rot5":25,"rot6":5,"dil1":0.875,"dil2":1.075,"dil3":1.125,"dil4":0.925,"dil5":0.975,"dil6":1.025,"rots":[15,-5,-15,-25,25,5],"dils":[0.875,1.075,1.125,0.925,0.975,1.025],"loop_number":1,"everTouched":null},{"id":"train-images","shape":"6","outlier_type":"NA","choice":1,"outlierPosition":1,"success":true,"majorityOfMostRegularShapes":"NA","rt":988.9999999976717,"rot1":-5,"rot2":15,"rot3":25,"rot4":-25,"rot5":5,"rot6":-15,"dil1":1.075,"dil2":0.925,"dil3":1.125,"dil4":0.975,"dil5":0.875,"dil6":1.025,"rots":[-5,15,25,-25,5,-15],"dils":[1.075,0.925,1.125,0.975,0.875,1.025],"loop_number":1,"everTouched":null},{"id":"train-images","shape":"5","outlier_type":"NA","choice":5,"outlierPosition":5,"success":true,"majorityOfMostRegularShapes":"NA","rt":1277.0999999993946,"rot1":15,"rot2":-15,"rot3":25,"rot4":-5,"rot5":5,"rot6":-25,"dil1":1.075,"dil2":0.875,"dil3":0.975,"dil4":1.025,"dil5":0.925,"dil6":1.125,"rots":[15,-15,25,-5,5,-25],"dils":[1.075,0.875,0.975,1.025,0.925,1.125],"loop_number":1,"everTouched":null},{"id":"train-images","shape":"4","outlier_type":"NA","choice":4,"outlierPosition":4,"success":true,"majorityOfMostRegularShapes":"NA","rt":1271.700000001234,"rot1":-5,"rot2":-25,"rot3":-15,"rot4":5,"rot5":15,"rot6":25,"dil1":1.025,"dil2":1.125,"dil3":0.975,"dil4":0.925,"dil5":1.075,"dil6":0.875,"rots":[-5,-25,-15,5,15,25],"dils":[1.025,1.125,0.975,0.925,1.075,0.875],"loop_number":1,"everTouched":null}],"trial_type":"oddball-grid-image","trial_index":1,"time_elapsed":5997626,"internal_node_id":"0.0-1.0","ID":"8cg5pj16km"},{"results":[{"id":"train","shape":null,"outlier_type":null,"choice":2,"outlierPosition":2,"success":true,"majorityOfMostRegularShapes":null,"rt":1195.400000000489,"rot1":25,"rot2":-25,"rot3":15,"rot4":-5,"rot5":-15,"rot6":5,"dil1":0.925,"dil2":0.875,"dil3":0.975,"dil4":1.025,"dil5":1.125,"dil6":1.075,"rots":[25,-25,15,-5,-15,5],"dils":[0.925,0.875,0.975,1.025,1.125,1.075],"loop_number":1,"everTouched":null},{"id":"train","shape":null,"outlier_type":null,"choice":3,"outlierPosition":3,"success":true,"majorityOfMostRegularShapes":null,"rt":1384.200000000419,"rot1":5,"rot2":25,"rot3":15,"rot4":-15,"rot5":-5,"rot6":-25,"dil1":1.125,"dil2":1.075,"dil3":0.925,"dil4":1.025,"dil5":0.975,"dil6":0.875,"rots":[5,25,15,-15,-5,-25],"dils":[1.125,1.075,0.925,1.025,0.975,0.875],"loop_number":1,"everTouched":null},{"id":"train","shape":null,"outlier_type":null,"choice":4,"outlierPosition":4,"success":true,"majorityOfMostRegularShapes":null,"rt":1132.4999999996508,"rot1":-5,"rot2":-25,"rot3":5,"rot4":25,"rot5":15,"rot6":-15,"dil1":1.025,"dil2":1.075,"dil3":1.125,"dil4":0.875,"dil5":0.975,"dil6":0.925,"rots":[-5,-25,5,25,15,-15],"dils":[1.025,1.075,1.125,0.875,0.975,0.925],"loop_number":1,"everTouched":null},{"id":"train","shape":null,"outlier_type":null,"choice":4,"outlierPosition":4,"success":true,"majorityOfMostRegularShapes":null,"rt":1106.499999998021,"rot1":25,"rot2":-15,"rot3":5,"rot4":15,"rot5":-25,"rot6":-5,"dil1":1.025,"dil2":1.075,"dil3":0.975,"dil4":1.125,"dil5":0.875,"dil6":0.925,"rots":[25,-15,5,15,-25,-5],"dils":[1.025,1.075,0.975,1.125,0.875,0.925],"loop_number":1,"everTouched":null},{"id":"train","shape":null,"outlier_type":null,"choice":5,"outlierPosition":5,"success":true,"majorityOfMostRegularShapes":null,"rt":1014.6999999997206,"rot1":5,"rot2":15,"rot3":-25,"rot4":-5,"rot5":25,"rot6":-15,"dil1":1.075,"dil2":1.025,"dil3":1.125,"dil4":0.875,"dil5":0.925,"dil6":0.975,"rots":[5,15,-25,-5,25,-15],"dils":[1.075,1.025,1.125,0.875,0.925,0.975],"loop_number":1,"everTouched":null},{"id":"train","shape":null,"outlier_type":null,"choice":1,"outlierPosition":1,"success":true,"majorityOfMostRegularShapes":null,"rt":1389.7999999972526,"rot1":5,"rot2":25,"rot3":-5,"rot4":15,"rot5":-15,"rot6":-25,"dil1":0.925,"dil2":1.025,"dil3":0.875,"dil4":0.975,"dil5":1.075,"dil6":1.125,"rots":[5,25,-5,15,-15,-25],"dils":[0.925,1.025,0.875,0.975,1.075,1.125],"loop_number":1,"everTouched":null}],"desiredDistance":0.3,"trial_type":"oddball-grid-easy","trial_index":2,"time_elapsed":6013636,"internal_node_id":"0.0-2.0","ID":"8cg5pj16km"},{"results":[{"id":"test","shape":"isoTrapezoid","outlier_type":3,"choice":1,"outlierPosition":4,"success":false,"majorityOfMostRegularShapes":true,"rt":3691.9000000015367,"rot1":15,"rot2":-25,"rot3":25,"rot4":-15,"rot5":5,"rot6":-5,"dil1":0.925,"dil2":1.025,"dil3":0.975,"dil4":0.875,"dil5":1.125,"dil6":1.075,"rots":[15,-25,25,-15,5,-5],"dils":[0.925,1.025,0.975,0.875,1.125,1.075],"loop_number":"NA","everTouched":null},{"id":"test","shape":"parallelogram","outlier_type":2,"choice":0,"outlierPosition":0,"success":true,"majorityOfMostRegularShapes":true,"rt":3191.6999999994878,"rot1":15,"rot2":5,"rot3":-5,"rot4":-15,"rot5":-25,"rot6":25,"dil1":1.025,"dil2":0.975,"dil3":0.875,"dil4":1.125,"dil5":0.925,"dil6":1.075,"rots":[15,5,-5,-15,-25,25],"dils":[1.025,0.975,0.875,1.125,0.925,1.075],"loop_number":"NA","everTouched":null},{"id":"test","shape":"losange","outlier_type":0,"choice":4,"outlierPosition":4,"success":true,"majorityOfMostRegularShapes":true,"rt":6290.100000001956,"rot1":-25,"rot2":25,"rot3":-5,"rot4":15,"rot5":5,"rot6":-15,"dil1":0.975,"dil2":1.025,"dil3":0.875,"dil4":0.925,"dil5":1.125,"dil6":1.075,"rots":[-25,25,-5,15,5,-15],"dils":[0.975,1.025,0.875,0.925,1.125,1.075],"loop_number":"NA","everTouched":null},{"id":"test","shape":"rectangle","outlier_type":2,"choice":5,"outlierPosition":5,"success":true,"majorityOfMostRegularShapes":true,"rt":1516.9999999997672,"rot1":5,"rot2":-15,"rot3":-25,"rot4":-5,"rot5":25,"rot6":15,"dil1":0.875,"dil2":1.025,"dil3":1.075,"dil4":0.925,"dil5":0.975,"dil6":1.125,"rots":[5,-15,-25,-5,25,15],"dils":[0.875,1.025,1.075,0.925,0.975,1.125],"loop_number":"NA","everTouched":null},{"id":"test","shape":"kite","outlier_type":3,"choice":5,"outlierPosition":5,"success":true,"majorityOfMostRegularShapes":true,"rt":3925.6999999997206,"rot1":-5,"rot2":25,"rot3":-25,"rot4":5,"rot5":-15,"rot6":15,"dil1":1.025,"dil2":1.075,"dil3":0.975,"dil4":1.125,"dil5":0.925,"dil6":0.875,"rots":[-5,25,-25,5,-15,15],"dils":[1.025,1.075,0.975,1.125,0.925,0.875],"loop_number":"NA","everTouched":null},{"id":"test","shape":"hinge","outlier_type":2,"choice":5,"outlierPosition":5,"success":true,"majorityOfMostRegularShapes":true,"rt":2611.8000000024913,"rot1":5,"rot2":-5,"rot3":25,"rot4":-25,"rot5":15,"rot6":-15,"dil1":1.025,"dil2":0.975,"dil3":1.125,"dil4":0.875,"dil5":0.925,"dil6":1.075,"rots":[5,-5,25,-25,15,-15],"dils":[1.025,0.975,1.125,0.875,0.925,1.075],"loop_number":"NA","everTouched":null},{"id":"test","shape":"rustedHinge","outlier_type":3,"choice":1,"outlierPosition":1,"success":true,"majorityOfMostRegularShapes":true,"rt":2636.500000000582,"rot1":-25,"rot2":5,"rot3":15,"rot4":-5,"rot5":25,"rot6":-15,"dil1":0.975,"dil2":1.025,"dil3":0.875,"dil4":1.125,"dil5":0.925,"dil6":1.075,"rots":[-25,5,15,-5,25,-15],"dils":[0.975,1.025,0.875,1.125,0.925,1.075],"loop_number":"NA","everTouched":null},{"id":"test","shape":"square","outlier_type":1,"choice":1,"outlierPosition":1,"success":true,"majorityOfMostRegularShapes":true,"rt":1731.900000002468,"rot1":-5,"rot2":25,"rot3":-15,"rot4":15,"rot5":5,"rot6":-25,"dil1":0.925,"dil2":1.075,"dil3":0.875,"dil4":1.025,"dil5":0.975,"dil6":1.125,"rots":[-5,25,-15,15,5,-25],"dils":[0.925,1.075,0.875,1.025,0.975,1.125],"loop_number":"NA","everTouched":null},{"id":"test","shape":"parallelogram","outlier_type":0,"choice":3,"outlierPosition":3,"success":true,"majorityOfMostRegularShapes":true,"rt":2456.79999999993,"rot1":-5,"rot2":25,"rot3":5,"rot4":-25,"rot5":15,"rot6":-15,"dil1":0.925,"dil2":1.025,"dil3":0.975,"dil4":1.125,"dil5":1.075,"dil6":0.875,"rots":[-5,25,5,-25,15,-15],"dils":[0.925,1.025,0.975,1.125,1.075,0.875],"loop_number":"NA","everTouched":null},{"id":"test","shape":"trapezoid","outlier_type":1,"choice":1,"outlierPosition":1,"success":true,"majorityOfMostRegularShapes":true,"rt":1810.0000000012806,"rot1":-5,"rot2":-25,"rot3":5,"rot4":-15,"rot5":15,"rot6":25,"dil1":0.875,"dil2":1.025,"dil3":1.125,"dil4":0.925,"dil5":1.075,"dil6":0.975,"rots":[-5,-25,5,-15,15,25],"dils":[0.875,1.025,1.125,0.925,1.075,0.975],"loop_number":"NA","everTouched":null},{"id":"test","shape":"losange","outlier_type":3,"choice":2,"outlierPosition":2,"success":true,"majorityOfMostRegularShapes":true,"rt":2314.800000000163,"rot1":-15,"rot2":5,"rot3":-5,"rot4":15,"rot5":25,"rot6":-25,"dil1":1.075,"dil2":0.925,"dil3":1.025,"dil4":0.975,"dil5":1.125,"dil6":0.875,"rots":[-15,5,-5,15,25,-25],"dils":[1.075,0.925,1.025,0.975,1.125,0.875],"loop_number":"NA","everTouched":null},{"id":"test","shape":"rectangle","outlier_type":1,"choice":1,"outlierPosition":1,"success":true,"majorityOfMostRegularShapes":true,"rt":1296.099999999511,"rot1":-15,"rot2":15,"rot3":25,"rot4":-5,"rot5":5,"rot6":-25,"dil1":1.125,"dil2":0.975,"dil3":0.875,"dil4":1.025,"dil5":1.075,"dil6":0.925,"rots":[-15,15,25,-5,5,-25],"dils":[1.125,0.975,0.875,1.025,1.075,0.925],"loop_number":"NA","everTouched":null},{"id":"test","shape":"rightKite","outlier_type":0,"choice":4,"outlierPosition":4,"success":true,"majorityOfMostRegularShapes":true,"rt":3499.9000000025844,"rot1":-5,"rot2":15,"rot3":-15,"rot4":25,"rot5":-25,"rot6":5,"dil1":1.075,"dil2":1.125,"dil3":0.875,"dil4":0.925,"dil5":0.975,"dil6":1.025,"rots":[-5,15,-15,25,-25,5],"dils":[1.075,1.125,0.875,0.925,0.975,1.025],"loop_number":"NA","everTouched":null},{"id":"test","shape":"hinge","outlier_type":1,"choice":4,"outlierPosition":0,"success":false,"majorityOfMostRegularShapes":true,"rt":2923.5999999982305,"rot1":-25,"rot2":15,"rot3":-5,"rot4":25,"rot5":5,"rot6":-15,"dil1":1.125,"dil2":0.875,"dil3":0.975,"dil4":1.025,"dil5":1.075,"dil6":0.925,"rots":[-25,15,-5,25,5,-15],"dils":[1.125,0.875,0.975,1.025,1.075,0.925],"loop_number":"NA","everTouched":null},{"id":"test","shape":"kite","outlier_type":0,"choice":1,"outlierPosition":5,"success":false,"majorityOfMostRegularShapes":true,"rt":3836.299999998999,"rot1":5,"rot2":-25,"rot3":25,"rot4":-15,"rot5":-5,"rot6":15,"dil1":1.075,"dil2":0.925,"dil3":0.875,"dil4":0.975,"dil5":1.125,"dil6":1.025,"rots":[5,-25,25,-15,-5,15],"dils":[1.075,0.925,0.875,0.975,1.125,1.025],"loop_number":"NA","everTouched":null},{"id":"test","shape":"rustedHinge","outlier_type":1,"choice":0,"outlierPosition":0,"success":true,"majorityOfMostRegularShapes":true,"rt":4782.400000000023,"rot1":25,"rot2":5,"rot3":-25,"rot4":-15,"rot5":15,"rot6":-5,"dil1":0.925,"dil2":1.125,"dil3":0.875,"dil4":0.975,"dil5":1.075,"dil6":1.025,"rots":[25,5,-25,-15,15,-5],"dils":[0.925,1.125,0.875,0.975,1.075,1.025],"loop_number":"NA","everTouched":null},{"id":"test","shape":"parallelogram","outlier_type":3,"choice":5,"outlierPosition":5,"success":true,"majorityOfMostRegularShapes":true,"rt":3166.300000000745,"rot1":15,"rot2":-5,"rot3":25,"rot4":-15,"rot5":5,"rot6":-25,"dil1":1.025,"dil2":0.875,"dil3":1.075,"dil4":1.125,"dil5":0.925,"dil6":0.975,"rots":[15,-5,25,-15,5,-25],"dils":[1.025,0.875,1.075,1.125,0.925,0.975],"loop_number":"NA","everTouched":null},{"id":"test","shape":"square","outlier_type":0,"choice":4,"outlierPosition":4,"success":true,"majorityOfMostRegularShapes":true,"rt":1746.2000000013504,"rot1":5,"rot2":25,"rot3":-15,"rot4":15,"rot5":-25,"rot6":-5,"dil1":0.975,"dil2":1.075,"dil3":0.925,"dil4":1.125,"dil5":1.025,"dil6":0.875,"rots":[5,25,-15,15,-25,-5],"dils":[0.975,1.075,0.925,1.125,1.025,0.875],"loop_number":"NA","everTouched":null},{"id":"test","shape":"parallelogram","outlier_type":1,"choice":5,"outlierPosition":5,"success":true,"majorityOfMostRegularShapes":true,"rt":3645.10000000149,"rot1":-15,"rot2":5,"rot3":-25,"rot4":15,"rot5":-5,"rot6":25,"dil1":0.975,"dil2":0.875,"dil3":1.075,"dil4":1.125,"dil5":0.925,"dil6":1.025,"rots":[-15,5,-25,15,-5,25],"dils":[0.975,0.875,1.075,1.125,0.925,1.025],"loop_number":"NA","everTouched":null},{"id":"test","shape":"rightKite","outlier_type":2,"choice":3,"outlierPosition":3,"success":true,"majorityOfMostRegularShapes":true,"rt":4438.600000001257,"rot1":-15,"rot2":-5,"rot3":15,"rot4":25,"rot5":-25,"rot6":5,"dil1":0.875,"dil2":1.125,"dil3":0.975,"dil4":0.925,"dil5":1.075,"dil6":1.025,"rots":[-15,-5,15,25,-25,5],"dils":[0.875,1.125,0.975,0.925,1.075,1.025],"loop_number":"NA","everTouched":null},{"id":"test","shape":"rustedHinge","outlier_type":0,"choice":1,"outlierPosition":1,"success":true,"majorityOfMostRegularShapes":true,"rt":3574.0000000004657,"rot1":5,"rot2":15,"rot3":-15,"rot4":25,"rot5":-25,"rot6":-5,"dil1":1.025,"dil2":1.125,"dil3":0.875,"dil4":1.075,"dil5":0.975,"dil6":0.925,"rots":[5,15,-15,25,-25,-5],"dils":[1.025,1.125,0.875,1.075,0.975,0.925],"loop_number":"NA","everTouched":null},{"id":"test","shape":"trapezoid","outlier_type":3,"choice":5,"outlierPosition":1,"success":false,"majorityOfMostRegularShapes":true,"rt":2669.400000002468,"rot1":25,"rot2":15,"rot3":-25,"rot4":-5,"rot5":-15,"rot6":5,"dil1":0.875,"dil2":1.075,"dil3":0.925,"dil4":1.125,"dil5":0.975,"dil6":1.025,"rots":[25,15,-25,-5,-15,5],"dils":[0.875,1.075,0.925,1.125,0.975,1.025],"loop_number":"NA","everTouched":null},{"id":"test","shape":"isoTrapezoid","outlier_type":0,"choice":0,"outlierPosition":0,"success":true,"majorityOfMostRegularShapes":true,"rt":3494.8000000002794,"rot1":5,"rot2":15,"rot3":-15,"rot4":-5,"rot5":-25,"rot6":25,"dil1":1.125,"dil2":1.075,"dil3":0.975,"dil4":1.025,"dil5":0.875,"dil6":0.925,"rots":[5,15,-15,-5,-25,25],"dils":[1.125,1.075,0.975,1.025,0.875,0.925],"loop_number":"NA","everTouched":null},{"id":"test","shape":"losange","outlier_type":1,"choice":5,"outlierPosition":5,"success":true,"majorityOfMostRegularShapes":true,"rt":2665.0000000009313,"rot1":15,"rot2":-25,"rot3":25,"rot4":-15,"rot5":5,"rot6":-5,"dil1":0.925,"dil2":0.975,"dil3":0.875,"dil4":1.025,"dil5":1.075,"dil6":1.125,"rots":[15,-25,25,-15,5,-5],"dils":[0.925,0.975,0.875,1.025,1.075,1.125],"loop_number":"NA","everTouched":null},{"id":"test","shape":"random","outlier_type":0,"choice":5,"outlierPosition":2,"success":false,"majorityOfMostRegularShapes":true,"rt":2719.9999999975553,"rot1":5,"rot2":-25,"rot3":25,"rot4":-5,"rot5":-15,"rot6":15,"dil1":1.075,"dil2":1.025,"dil3":0.925,"dil4":0.975,"dil5":0.875,"dil6":1.125,"rots":[5,-25,25,-5,-15,15],"dils":[1.075,1.025,0.925,0.975,0.875,1.125],"loop_number":"NA","everTouched":null},{"id":"test","shape":"square","outlier_type":3,"choice":5,"outlierPosition":5,"success":true,"majorityOfMostRegularShapes":true,"rt":2136.800000000163,"rot1":5,"rot2":-25,"rot3":-15,"rot4":-5,"rot5":25,"rot6":15,"dil1":0.975,"dil2":1.125,"dil3":0.925,"dil4":0.875,"dil5":1.025,"dil6":1.075,"rots":[5,-25,-15,-5,25,15],"dils":[0.975,1.125,0.925,0.875,1.025,1.075],"loop_number":"NA","everTouched":null},{"id":"test","shape":"trapezoid","outlier_type":0,"choice":2,"outlierPosition":0,"success":false,"majorityOfMostRegularShapes":true,"rt":4649.799999999232,"rot1":-5,"rot2":-25,"rot3":15,"rot4":5,"rot5":25,"rot6":-15,"dil1":1.075,"dil2":0.875,"dil3":1.125,"dil4":1.025,"dil5":0.925,"dil6":0.975,"rots":[-5,-25,15,5,25,-15],"dils":[1.075,0.875,1.125,1.025,0.925,0.975],"loop_number":"NA","everTouched":null},{"id":"test","shape":"rightKite","outlier_type":1,"choice":5,"outlierPosition":3,"success":false,"majorityOfMostRegularShapes":true,"rt":5507.900000000489,"rot1":15,"rot2":-5,"rot3":5,"rot4":-25,"rot5":25,"rot6":-15,"dil1":0.875,"dil2":1.075,"dil3":1.025,"dil4":0.925,"dil5":0.975,"dil6":1.125,"rots":[15,-5,5,-25,25,-15],"dils":[0.875,1.075,1.025,0.925,0.975,1.125],"loop_number":"NA","everTouched":null},{"id":"test","shape":"losange","outlier_type":2,"choice":3,"outlierPosition":3,"success":true,"majorityOfMostRegularShapes":true,"rt":2864.4999999996508,"rot1":15,"rot2":-5,"rot3":25,"rot4":5,"rot5":-15,"rot6":-25,"dil1":0.925,"dil2":1.025,"dil3":0.875,"dil4":1.075,"dil5":1.125,"dil6":0.975,"rots":[15,-5,25,5,-15,-25],"dils":[0.925,1.025,0.875,1.075,1.125,0.975],"loop_number":"NA","everTouched":null},{"id":"test","shape":"isoTrapezoid","outlier_type":1,"choice":5,"outlierPosition":5,"success":true,"majorityOfMostRegularShapes":true,"rt":2303.700000000419,"rot1":-15,"rot2":15,"rot3":5,"rot4":-5,"rot5":25,"rot6":-25,"dil1":0.875,"dil2":1.025,"dil3":1.075,"dil4":0.975,"dil5":1.125,"dil6":0.925,"rots":[-15,15,5,-5,25,-25],"dils":[0.875,1.025,1.075,0.975,1.125,0.925],"loop_number":"NA","everTouched":null},{"id":"test","shape":"trapezoid","outlier_type":2,"choice":4,"outlierPosition":3,"success":false,"majorityOfMostRegularShapes":true,"rt":2544.2000000003027,"rot1":5,"rot2":-25,"rot3":-15,"rot4":15,"rot5":-5,"rot6":25,"dil1":0.975,"dil2":1.075,"dil3":0.925,"dil4":0.875,"dil5":1.125,"dil6":1.025,"rots":[5,-25,-15,15,-5,25],"dils":[0.975,1.075,0.925,0.875,1.125,1.025],"loop_number":"NA","everTouched":null},{"id":"test","shape":"hinge","outlier_type":3,"choice":1,"outlierPosition":1,"success":true,"majorityOfMostRegularShapes":true,"rt":7170.000000001863,"rot1":5,"rot2":-5,"rot3":-15,"rot4":25,"rot5":-25,"rot6":15,"dil1":0.975,"dil2":0.925,"dil3":1.125,"dil4":0.875,"dil5":1.025,"dil6":1.075,"rots":[5,-5,-15,25,-25,15],"dils":[0.975,0.925,1.125,0.875,1.025,1.075],"loop_number":"NA","everTouched":null},{"id":"test","shape":"random","outlier_type":1,"choice":3,"outlierPosition":3,"success":true,"majorityOfMostRegularShapes":true,"rt":5053.8999999989755,"rot1":-25,"rot2":-5,"rot3":25,"rot4":-15,"rot5":15,"rot6":5,"dil1":0.925,"dil2":1.125,"dil3":0.975,"dil4":1.025,"dil5":0.875,"dil6":1.075,"rots":[-25,-5,25,-15,15,5],"dils":[0.925,1.125,0.975,1.025,0.875,1.075],"loop_number":"NA","everTouched":null},{"id":"test","shape":"kite","outlier_type":2,"choice":0,"outlierPosition":0,"success":true,"majorityOfMostRegularShapes":true,"rt":3539.2999999966705,"rot1":5,"rot2":-25,"rot3":15,"rot4":-15,"rot5":25,"rot6":-5,"dil1":0.975,"dil2":1.025,"dil3":1.075,"dil4":0.925,"dil5":0.875,"dil6":1.125,"rots":[5,-25,15,-15,25,-5],"dils":[0.975,1.025,1.075,0.925,0.875,1.125],"loop_number":"NA","everTouched":null},{"id":"test","shape":"rectangle","outlier_type":0,"choice":5,"outlierPosition":5,"success":true,"majorityOfMostRegularShapes":true,"rt":2278.999999998603,"rot1":-15,"rot2":25,"rot3":5,"rot4":15,"rot5":-25,"rot6":-5,"dil1":1.025,"dil2":0.875,"dil3":1.075,"dil4":0.975,"dil5":0.925,"dil6":1.125,"rots":[-15,25,5,15,-25,-5],"dils":[1.025,0.875,1.075,0.975,0.925,1.125],"loop_number":"NA","everTouched":null},{"id":"test","shape":"kite","outlier_type":1,"choice":0,"outlierPosition":2,"success":false,"majorityOfMostRegularShapes":true,"rt":6534.999999999884,"rot1":-25,"rot2":5,"rot3":15,"rot4":-5,"rot5":-15,"rot6":25,"dil1":0.925,"dil2":0.875,"dil3":1.025,"dil4":0.975,"dil5":1.125,"dil6":1.075,"rots":[-25,5,15,-5,-15,25],"dils":[0.925,0.875,1.025,0.975,1.125,1.075],"loop_number":"NA","everTouched":null},{"id":"test","shape":"square","outlier_type":2,"choice":1,"outlierPosition":1,"success":true,"majorityOfMostRegularShapes":true,"rt":1154.9999999988358,"rot1":25,"rot2":-5,"rot3":5,"rot4":-25,"rot5":-15,"rot6":15,"dil1":0.925,"dil2":1.125,"dil3":1.075,"dil4":0.875,"dil5":1.025,"dil6":0.975,"rots":[25,-5,5,-25,-15,15],"dils":[0.925,1.125,1.075,0.875,1.025,0.975],"loop_number":"NA","everTouched":null},{"id":"test","shape":"hinge","outlier_type":0,"choice":1,"outlierPosition":5,"success":false,"majorityOfMostRegularShapes":true,"rt":2720.600000000559,"rot1":-25,"rot2":25,"rot3":-5,"rot4":-15,"rot5":5,"rot6":15,"dil1":0.875,"dil2":1.075,"dil3":0.975,"dil4":1.025,"dil5":1.125,"dil6":0.925,"rots":[-25,25,-5,-15,5,15],"dils":[0.875,1.075,0.975,1.025,1.125,0.925],"loop_number":"NA","everTouched":null},{"id":"test","shape":"isoTrapezoid","outlier_type":2,"choice":1,"outlierPosition":1,"success":true,"majorityOfMostRegularShapes":true,"rt":2036.099999997532,"rot1":-5,"rot2":-25,"rot3":5,"rot4":15,"rot5":-15,"rot6":25,"dil1":1.075,"dil2":1.025,"dil3":0.875,"dil4":0.925,"dil5":1.125,"dil6":0.975,"rots":[-5,-25,5,15,-15,25],"dils":[1.075,1.025,0.875,0.925,1.125,0.975],"loop_number":"NA","everTouched":null},{"id":"test","shape":"rightKite","outlier_type":3,"choice":0,"outlierPosition":1,"success":false,"majorityOfMostRegularShapes":true,"rt":8996.299999998882,"rot1":-25,"rot2":15,"rot3":-5,"rot4":25,"rot5":-15,"rot6":5,"dil1":1.025,"dil2":0.925,"dil3":0.875,"dil4":1.125,"dil5":1.075,"dil6":0.975,"rots":[-25,15,-5,25,-15,5],"dils":[1.025,0.925,0.875,1.125,1.075,0.975],"loop_number":"NA","everTouched":null},{"id":"test","shape":"random","outlier_type":2,"choice":3,"outlierPosition":3,"success":true,"majorityOfMostRegularShapes":true,"rt":7361.899999999907,"rot1":25,"rot2":15,"rot3":-25,"rot4":5,"rot5":-5,"rot6":-15,"dil1":1.125,"dil2":0.925,"dil3":1.025,"dil4":0.875,"dil5":1.075,"dil6":0.975,"rots":[25,15,-25,5,-5,-15],"dils":[1.125,0.925,1.025,0.875,1.075,0.975],"loop_number":"NA","everTouched":null},{"id":"test","shape":"rectangle","outlier_type":3,"choice":4,"outlierPosition":4,"success":true,"majorityOfMostRegularShapes":true,"rt":2541.199999999604,"rot1":5,"rot2":15,"rot3":25,"rot4":-5,"rot5":-15,"rot6":-25,"dil1":1.025,"dil2":0.975,"dil3":1.125,"dil4":1.075,"dil5":0.875,"dil6":0.925,"rots":[5,15,25,-5,-15,-25],"dils":[1.025,0.975,1.125,1.075,0.875,0.925],"loop_number":"NA","everTouched":null},{"id":"test","shape":"rustedHinge","outlier_type":2,"choice":4,"outlierPosition":4,"success":true,"majorityOfMostRegularShapes":true,"rt":2942.6000000021886,"rot1":-15,"rot2":-25,"rot3":15,"rot4":25,"rot5":-5,"rot6":5,"dil1":1.025,"dil2":1.125,"dil3":0.975,"dil4":1.075,"dil5":0.925,"dil6":0.875,"rots":[-15,-25,15,25,-5,5],"dils":[1.025,1.125,0.975,1.075,0.925,0.875],"loop_number":"NA","everTouched":null},{"id":"test","shape":"random","outlier_type":3,"choice":4,"outlierPosition":0,"success":false,"majorityOfMostRegularShapes":true,"rt":5672.699999999255,"rot1":-15,"rot2":15,"rot3":-5,"rot4":5,"rot5":-25,"rot6":25,"dil1":0.925,"dil2":1.075,"dil3":1.125,"dil4":0.875,"dil5":1.025,"dil6":0.975,"rots":[-15,15,-5,5,-25,25],"dils":[0.925,1.075,1.125,0.875,1.025,0.975],"loop_number":"NA","everTouched":null}],"desiredDistance":0.3,"trial_type":"oddball-grid","trial_index":3,"time_elapsed":6233361,"internal_node_id":"0.0-3.0","ID":"8cg5pj16km"},{"success":true,"trial_type":"fullscreen","trial_index":4,"time_elapsed":6239147,"internal_node_id":"0.0-4.0","ID":"8cg5pj16km"}]