[{"success":true,"trial_type":"fullscreen","trial_index":0,"time_elapsed":2520475,"internal_node_id":"0.0-0.0","ID":"s9o0vh5jrm"},{"results":[{"id":"train-images","shape":"6","outlier_type":"NA","choice":2,"outlierPosition":2,"success":true,"majorityOfMostRegularShapes":"NA","rt":3034.699999996519,"rot1":5,"rot2":15,"rot3":-5,"rot4":-25,"rot5":-15,"rot6":25,"dil1":1.125,"dil2":1.025,"dil3":1.075,"dil4":0.975,"dil5":0.875,"dil6":0.925,"rots":[5,15,-5,-25,-15,25],"dils":[1.125,1.025,1.075,0.975,0.875,0.925],"loop_number":1,"everTouched":null},{"id":"train-images","shape":"7","outlier_type":"NA","choice":0,"outlierPosition":0,"success":true,"majorityOfMostRegularShapes":"NA","rt":1337.2000000017579,"rot1":-25,"rot2":-5,"rot3":15,"rot4":25,"rot5":5,"rot6":-15,"dil1":0.875,"dil2":1.025,"dil3":1.125,"dil4":0.925,"dil5":1.075,"dil6":0.975,"rots":[-25,-5,15,25,5,-15],"dils":[0.875,1.025,1.125,0.925,1.075,0.975],"loop_number":1,"everTouched":null},{"id":"train-images","shape":"5","outlier_type":"NA","choice":5,"outlierPosition":5,"success":true,"majorityOfMostRegularShapes":"NA","rt":914.7999999986496,"rot1":25,"rot2":-15,"rot3":15,"rot4":-5,"rot5":-25,"rot6":5,"dil1":1.125,"dil2":1.075,"dil3":0.975,"dil4":0.875,"dil5":0.925,"dil6":1.025,"rots":[25,-15,15,-5,-25,5],"dils":[1.125,1.075,0.975,0.875,0.925,1.025],"loop_number":1,"everTouched":null},{"id":"train-images","shape":"2","outlier_type":"NA","choice":0,"outlierPosition":0,"success":true,"majorityOfMostRegularShapes":"NA","rt":953.5000000032596,"rot1":25,"rot2":-25,"rot3":-5,"rot4":-15,"rot5":5,"rot6":15,"dil1":0.875,"dil2":0.925,"dil3":1.075,"dil4":0.975,"dil5":1.025,"dil6":1.125,"rots":[25,-25,-5,-15,5,15],"dils":[0.875,0.925,1.075,0.975,1.025,1.125],"loop_number":1,"everTouched":null},{"id":"train-images","shape":"9","outlier_type":"NA","choice":1,"outlierPosition":1,"success":true,"majorityOfMostRegularShapes":"NA","rt":1004.6000000002095,"rot1":-5,"rot2":25,"rot3":-15,"rot4":5,"rot5":-25,"rot6":15,"dil1":1.025,"dil2":1.125,"dil3":0.975,"dil4":0.925,"dil5":1.075,"dil6":0.875,"rots":[-5,25,-15,5,-25,15],"dils":[1.025,1.125,0.975,0.925,1.075,0.875],"loop_number":1,"everTouched":null},{"id":"train-images","shape":"4","outlier_type":"NA","choice":0,"outlierPosition":0,"success":true,"majorityOfMostRegularShapes":"NA","rt":1231.099999997241,"rot1":-5,"rot2":25,"rot3":-15,"rot4":5,"rot5":15,"rot6":-25,"dil1":0.925,"dil2":0.975,"dil3":1.075,"dil4":1.125,"dil5":1.025,"dil6":0.875,"rots":[-5,25,-15,5,15,-25],"dils":[0.925,0.975,1.075,1.125,1.025,0.875],"loop_number":1,"everTouched":null},{"id":"train-images","shape":"10","outlier_type":"NA","choice":0,"outlierPosition":0,"success":true,"majorityOfMostRegularShapes":"NA","rt":972.5999999936903,"rot1":5,"rot2":-15,"rot3":25,"rot4":-5,"rot5":15,"rot6":-25,"dil1":0.925,"dil2":0.875,"dil3":0.975,"dil4":1.075,"dil5":1.025,"dil6":1.125,"rots":[5,-15,25,-5,15,-25],"dils":[0.925,0.875,0.975,1.075,1.025,1.125],"loop_number":1,"everTouched":null},{"id":"train-images","shape":"8","outlier_type":"NA","choice":4,"outlierPosition":4,"success":true,"majorityOfMostRegularShapes":"NA","rt":806.5999999962514,"rot1":-5,"rot2":-25,"rot3":5,"rot4":-15,"rot5":15,"rot6":25,"dil1":0.925,"dil2":1.075,"dil3":1.125,"dil4":0.975,"dil5":0.875,"dil6":1.025,"rots":[-5,-25,5,-15,15,25],"dils":[0.925,1.075,1.125,0.975,0.875,1.025],"loop_number":1,"everTouched":null},{"id":"train-images","shape":"1","outlier_type":"NA","choice":1,"outlierPosition":1,"success":true,"majorityOfMostRegularShapes":"NA","rt":807.8999999997905,"rot1":-15,"rot2":25,"rot3":5,"rot4":-25,"rot5":-5,"rot6":15,"dil1":0.925,"dil2":1.125,"dil3":0.875,"dil4":1.075,"dil5":1.025,"dil6":0.975,"rots":[-15,25,5,-25,-5,15],"dils":[0.925,1.125,0.875,1.075,1.025,0.975],"loop_number":1,"everTouched":null},{"id":"train-images","shape":"3","outlier_type":"NA","choice":0,"outlierPosition":0,"success":true,"majorityOfMostRegularShapes":"NA","rt":1478.399999999965,"rot1":25,"rot2":-25,"rot3":15,"rot4":-5,"rot5":5,"rot6":-15,"dil1":1.125,"dil2":0.925,"dil3":1.075,"dil4":0.875,"dil5":0.975,"dil6":1.025,"rots":[25,-25,15,-5,5,-15],"dils":[1.125,0.925,1.075,0.875,0.975,1.025],"loop_number":1,"everTouched":null}],"trial_type":"oddball-grid-image","trial_index":1,"time_elapsed":2580874,"internal_node_id":"0.0-1.0","ID":"s9o0vh5jrm"},{"results":[{"id":"train","shape":null,"outlier_type":null,"choice":2,"outlierPosition":2,"success":true,"majorityOfMostRegularShapes":null,"rt":1543.2000000000698,"rot1":-25,"rot2":-5,"rot3":-15,"rot4":25,"rot5":15,"rot6":5,"dil1":0.925,"dil2":0.975,"dil3":1.025,"dil4":1.125,"dil5":0.875,"dil6":1.075,"rots":[-25,-5,-15,25,15,5],"dils":[0.925,0.975,1.025,1.125,0.875,1.075],"loop_number":1,"everTouched":null},{"id":"train","shape":null,"outlier_type":null,"choice":1,"outlierPosition":1,"success":true,"majorityOfMostRegularShapes":null,"rt":2203.9000000004307,"rot1":-5,"rot2":-25,"rot3":-15,"rot4":15,"rot5":5,"rot6":25,"dil1":0.875,"dil2":0.975,"dil3":1.075,"dil4":1.025,"dil5":1.125,"dil6":0.925,"rots":[-5,-25,-15,15,5,25],"dils":[0.875,0.975,1.075,1.025,1.125,0.925],"loop_number":1,"everTouched":null},{"id":"train","shape":null,"outlier_type":null,"choice":0,"outlierPosition":5,"success":false,"majorityOfMostRegularShapes":null,"rt":995.4999999972642,"rot1":-5,"rot2":25,"rot3":5,"rot4":-25,"rot5":-15,"rot6":15,"dil1":1.125,"dil2":0.925,"dil3":1.025,"dil4":1.075,"dil5":0.875,"dil6":0.975,"rots":[-5,25,5,-25,-15,15],"dils":[1.125,0.925,1.025,1.075,0.875,0.975],"loop_number":1,"everTouched":null},{"id":"train","shape":null,"outlier_type":null,"choice":3,"outlierPosition":3,"success":true,"majorityOfMostRegularShapes":null,"rt":1508.6000000010245,"rot1":-15,"rot2":-25,"rot3":5,"rot4":25,"rot5":15,"rot6":-5,"dil1":0.875,"dil2":1.125,"dil3":1.025,"dil4":0.925,"dil5":1.075,"dil6":0.975,"rots":[-15,-25,5,25,15,-5],"dils":[0.875,1.125,1.025,0.925,1.075,0.975],"loop_number":1,"everTouched":null},{"id":"train","shape":null,"outlier_type":null,"choice":5,"outlierPosition":5,"success":true,"majorityOfMostRegularShapes":null,"rt":959.2000000047847,"rot1":-25,"rot2":15,"rot3":25,"rot4":5,"rot5":-5,"rot6":-15,"dil1":0.925,"dil2":1.025,"dil3":1.075,"dil4":0.875,"dil5":0.975,"dil6":1.125,"rots":[-25,15,25,5,-5,-15],"dils":[0.925,1.025,1.075,0.875,0.975,1.125],"loop_number":1,"everTouched":null},{"id":"train","shape":null,"outlier_type":null,"choice":5,"outlierPosition":5,"success":true,"majorityOfMostRegularShapes":null,"rt":1320.899999998801,"rot1":-15,"rot2":-25,"rot3":-5,"rot4":5,"rot5":15,"rot6":25,"dil1":0.975,"dil2":1.125,"dil3":0.925,"dil4":1.075,"dil5":1.025,"dil6":0.875,"rots":[-15,-25,-5,5,15,25],"dils":[0.975,1.125,0.925,1.075,1.025,0.875],"loop_number":1,"everTouched":null}],"desiredDistance":0.3,"trial_type":"oddball-grid-easy","trial_index":2,"time_elapsed":2600326,"internal_node_id":"0.0-2.0","ID":"s9o0vh5jrm"},{"results":[{"id":"test","shape":"rightKite","outlier_type":1,"choice":4,"outlierPosition":1,"success":false,"majorityOfMostRegularShapes":true,"rt":5526.899999997113,"rot1":5,"rot2":25,"rot3":-15,"rot4":15,"rot5":-25,"rot6":-5,"dil1":1.075,"dil2":0.975,"dil3":0.875,"dil4":1.025,"dil5":0.925,"dil6":1.125,"rots":[5,25,-15,15,-25,-5],"dils":[1.075,0.975,0.875,1.025,0.925,1.125],"loop_number":"NA","everTouched":null},{"id":"test","shape":"random","outlier_type":3,"choice":2,"outlierPosition":3,"success":false,"majorityOfMostRegularShapes":true,"rt":7452.199999999721,"rot1":5,"rot2":-5,"rot3":-25,"rot4":15,"rot5":25,"rot6":-15,"dil1":0.975,"dil2":0.875,"dil3":1.025,"dil4":1.075,"dil5":0.925,"dil6":1.125,"rots":[5,-5,-25,15,25,-15],"dils":[0.975,0.875,1.025,1.075,0.925,1.125],"loop_number":"NA","everTouched":null},{"id":"test","shape":"trapezoid","outlier_type":0,"choice":4,"outlierPosition":4,"success":true,"majorityOfMostRegularShapes":true,"rt":7803.400000004331,"rot1":5,"rot2":-5,"rot3":-25,"rot4":15,"rot5":25,"rot6":-15,"dil1":1.125,"dil2":0.975,"dil3":1.075,"dil4":0.925,"dil5":1.025,"dil6":0.875,"rots":[5,-5,-25,15,25,-15],"dils":[1.125,0.975,1.075,0.925,1.025,0.875],"loop_number":"NA","everTouched":null},{"id":"test","shape":"parallelogram","outlier_type":1,"choice":5,"outlierPosition":5,"success":true,"majorityOfMostRegularShapes":true,"rt":3347.300000001269,"rot1":5,"rot2":25,"rot3":-15,"rot4":-25,"rot5":-5,"rot6":15,"dil1":1.075,"dil2":1.025,"dil3":0.975,"dil4":0.925,"dil5":0.875,"dil6":1.125,"rots":[5,25,-15,-25,-5,15],"dils":[1.075,1.025,0.975,0.925,0.875,1.125],"loop_number":"NA","everTouched":null},{"id":"test","shape":"kite","outlier_type":2,"choice":5,"outlierPosition":5,"success":true,"majorityOfMostRegularShapes":true,"rt":1964.8999999990338,"rot1":-5,"rot2":5,"rot3":-15,"rot4":15,"rot5":25,"rot6":-25,"dil1":0.925,"dil2":1.025,"dil3":0.875,"dil4":1.125,"dil5":1.075,"dil6":0.975,"rots":[-5,5,-15,15,25,-25],"dils":[0.925,1.025,0.875,1.125,1.075,0.975],"loop_number":"NA","everTouched":null},{"id":"test","shape":"losange","outlier_type":1,"choice":4,"outlierPosition":0,"success":false,"majorityOfMostRegularShapes":true,"rt":4378.40000000142,"rot1":-5,"rot2":15,"rot3":5,"rot4":-25,"rot5":-15,"rot6":25,"dil1":1.125,"dil2":0.875,"dil3":1.075,"dil4":1.025,"dil5":0.925,"dil6":0.975,"rots":[-5,15,5,-25,-15,25],"dils":[1.125,0.875,1.075,1.025,0.925,0.975],"loop_number":"NA","everTouched":null},{"id":"test","shape":"rightKite","outlier_type":2,"choice":5,"outlierPosition":5,"success":true,"majorityOfMostRegularShapes":true,"rt":6834.69999999943,"rot1":15,"rot2":-5,"rot3":25,"rot4":-15,"rot5":5,"rot6":-25,"dil1":1.025,"dil2":0.975,"dil3":1.125,"dil4":0.875,"dil5":1.075,"dil6":0.925,"rots":[15,-5,25,-15,5,-25],"dils":[1.025,0.975,1.125,0.875,1.075,0.925],"loop_number":"NA","everTouched":null},{"id":"test","shape":"rectangle","outlier_type":0,"choice":0,"outlierPosition":0,"success":true,"majorityOfMostRegularShapes":true,"rt":3338.10000000085,"rot1":25,"rot2":-5,"rot3":15,"rot4":5,"rot5":-15,"rot6":-25,"dil1":0.975,"dil2":1.075,"dil3":0.925,"dil4":0.875,"dil5":1.025,"dil6":1.125,"rots":[25,-5,15,5,-15,-25],"dils":[0.975,1.075,0.925,0.875,1.025,1.125],"loop_number":"NA","everTouched":null},{"id":"test","shape":"hinge","outlier_type":3,"choice":0,"outlierPosition":0,"success":true,"majorityOfMostRegularShapes":true,"rt":2488.099999995029,"rot1":15,"rot2":-5,"rot3":25,"rot4":-25,"rot5":-15,"rot6":5,"dil1":0.875,"dil2":0.925,"dil3":1.025,"dil4":1.125,"dil5":0.975,"dil6":1.075,"rots":[15,-5,25,-25,-15,5],"dils":[0.875,0.925,1.025,1.125,0.975,1.075],"loop_number":"NA","everTouched":null},{"id":"test","shape":"isoTrapezoid","outlier_type":0,"choice":5,"outlierPosition":2,"success":false,"majorityOfMostRegularShapes":true,"rt":5180.899999999383,"rot1":-25,"rot2":25,"rot3":-15,"rot4":-5,"rot5":15,"rot6":5,"dil1":1.125,"dil2":0.875,"dil3":0.975,"dil4":1.025,"dil5":0.925,"dil6":1.075,"rots":[-25,25,-15,-5,15,5],"dils":[1.125,0.875,0.975,1.025,0.925,1.075],"loop_number":"NA","everTouched":null},{"id":"test","shape":"hinge","outlier_type":2,"choice":0,"outlierPosition":1,"success":false,"majorityOfMostRegularShapes":true,"rt":5633.200000003853,"rot1":25,"rot2":-5,"rot3":15,"rot4":-15,"rot5":-25,"rot6":5,"dil1":0.925,"dil2":1.025,"dil3":1.075,"dil4":0.975,"dil5":1.125,"dil6":0.875,"rots":[25,-5,15,-15,-25,5],"dils":[0.925,1.025,1.075,0.975,1.125,0.875],"loop_number":"NA","everTouched":null},{"id":"test","shape":"kite","outlier_type":1,"choice":0,"outlierPosition":0,"success":true,"majorityOfMostRegularShapes":true,"rt":2809.400000005553,"rot1":5,"rot2":15,"rot3":-25,"rot4":-15,"rot5":25,"rot6":-5,"dil1":0.875,"dil2":1.025,"dil3":0.975,"dil4":0.925,"dil5":1.125,"dil6":1.075,"rots":[5,15,-25,-15,25,-5],"dils":[0.875,1.025,0.975,0.925,1.125,1.075],"loop_number":"NA","everTouched":null},{"id":"test","shape":"losange","outlier_type":0,"choice":4,"outlierPosition":0,"success":false,"majorityOfMostRegularShapes":true,"rt":2542.3999999984517,"rot1":-5,"rot2":25,"rot3":5,"rot4":-25,"rot5":-15,"rot6":15,"dil1":1.075,"dil2":0.925,"dil3":1.025,"dil4":0.975,"dil5":0.875,"dil6":1.125,"rots":[-5,25,5,-25,-15,15],"dils":[1.075,0.925,1.025,0.975,0.875,1.125],"loop_number":"NA","everTouched":null},{"id":"test","shape":"rustedHinge","outlier_type":2,"choice":1,"outlierPosition":1,"success":true,"majorityOfMostRegularShapes":true,"rt":7367.899999997462,"rot1":-15,"rot2":15,"rot3":25,"rot4":-25,"rot5":5,"rot6":-5,"dil1":1.125,"dil2":0.925,"dil3":1.075,"dil4":0.975,"dil5":0.875,"dil6":1.025,"rots":[-15,15,25,-25,5,-5],"dils":[1.125,0.925,1.075,0.975,0.875,1.025],"loop_number":"NA","everTouched":null},{"id":"test","shape":"random","outlier_type":1,"choice":2,"outlierPosition":2,"success":true,"majorityOfMostRegularShapes":true,"rt":3552.79999999766,"rot1":-5,"rot2":-25,"rot3":25,"rot4":-15,"rot5":5,"rot6":15,"dil1":0.925,"dil2":0.975,"dil3":1.125,"dil4":1.075,"dil5":1.025,"dil6":0.875,"rots":[-5,-25,25,-15,5,15],"dils":[0.925,0.975,1.125,1.075,1.025,0.875],"loop_number":"NA","everTouched":null},{"id":"test","shape":"parallelogram","outlier_type":3,"choice":2,"outlierPosition":5,"success":false,"majorityOfMostRegularShapes":true,"rt":1343.6999999976251,"rot1":-15,"rot2":25,"rot3":-25,"rot4":-5,"rot5":5,"rot6":15,"dil1":1.025,"dil2":0.975,"dil3":0.875,"dil4":1.075,"dil5":0.925,"dil6":1.125,"rots":[-15,25,-25,-5,5,15],"dils":[1.025,0.975,0.875,1.075,0.925,1.125],"loop_number":"NA","everTouched":null},{"id":"test","shape":"square","outlier_type":0,"choice":1,"outlierPosition":1,"success":true,"majorityOfMostRegularShapes":true,"rt":5635.500000003958,"rot1":-5,"rot2":-15,"rot3":-25,"rot4":25,"rot5":5,"rot6":15,"dil1":1.125,"dil2":0.925,"dil3":0.875,"dil4":1.075,"dil5":1.025,"dil6":0.975,"rots":[-5,-15,-25,25,5,15],"dils":[1.125,0.925,0.875,1.075,1.025,0.975],"loop_number":"NA","everTouched":null},{"id":"test","shape":"kite","outlier_type":3,"choice":5,"outlierPosition":5,"success":true,"majorityOfMostRegularShapes":true,"rt":3550.599999995029,"rot1":-15,"rot2":5,"rot3":25,"rot4":-25,"rot5":15,"rot6":-5,"dil1":1.075,"dil2":0.875,"dil3":1.125,"dil4":0.925,"dil5":1.025,"dil6":0.975,"rots":[-15,5,25,-25,15,-5],"dils":[1.075,0.875,1.125,0.925,1.025,0.975],"loop_number":"NA","everTouched":null},{"id":"test","shape":"rectangle","outlier_type":1,"choice":1,"outlierPosition":1,"success":true,"majorityOfMostRegularShapes":true,"rt":2233.799999994517,"rot1":15,"rot2":-15,"rot3":-25,"rot4":25,"rot5":5,"rot6":-5,"dil1":0.975,"dil2":1.125,"dil3":1.075,"dil4":1.025,"dil5":0.875,"dil6":0.925,"rots":[15,-15,-25,25,5,-5],"dils":[0.975,1.125,1.075,1.025,0.875,0.925],"loop_number":"NA","everTouched":null},{"id":"test","shape":"parallelogram","outlier_type":0,"choice":4,"outlierPosition":4,"success":true,"majorityOfMostRegularShapes":true,"rt":2527.699999998731,"rot1":5,"rot2":25,"rot3":-5,"rot4":15,"rot5":-25,"rot6":-15,"dil1":1.025,"dil2":1.125,"dil3":0.925,"dil4":1.075,"dil5":0.875,"dil6":0.975,"rots":[5,25,-5,15,-25,-15],"dils":[1.025,1.125,0.925,1.075,0.875,0.975],"loop_number":"NA","everTouched":null},{"id":"test","shape":"isoTrapezoid","outlier_type":3,"choice":0,"outlierPosition":0,"success":true,"majorityOfMostRegularShapes":true,"rt":5672.600000005332,"rot1":5,"rot2":-15,"rot3":15,"rot4":25,"rot5":-5,"rot6":-25,"dil1":0.975,"dil2":0.925,"dil3":1.125,"dil4":1.075,"dil5":1.025,"dil6":0.875,"rots":[5,-15,15,25,-5,-25],"dils":[0.975,0.925,1.125,1.075,1.025,0.875],"loop_number":"NA","everTouched":null},{"id":"test","shape":"rightKite","outlier_type":0,"choice":2,"outlierPosition":2,"success":true,"majorityOfMostRegularShapes":true,"rt":7703.39999999851,"rot1":-25,"rot2":15,"rot3":25,"rot4":5,"rot5":-15,"rot6":-5,"dil1":1.075,"dil2":0.925,"dil3":1.025,"dil4":0.975,"dil5":0.875,"dil6":1.125,"rots":[-25,15,25,5,-15,-5],"dils":[1.075,0.925,1.025,0.975,0.875,1.125],"loop_number":"NA","everTouched":null},{"id":"test","shape":"rectangle","outlier_type":2,"choice":3,"outlierPosition":3,"success":true,"majorityOfMostRegularShapes":true,"rt":1642.0999999972992,"rot1":-5,"rot2":5,"rot3":25,"rot4":15,"rot5":-25,"rot6":-15,"dil1":1.125,"dil2":0.975,"dil3":1.075,"dil4":0.875,"dil5":0.925,"dil6":1.025,"rots":[-5,5,25,15,-25,-15],"dils":[1.125,0.975,1.075,0.875,0.925,1.025],"loop_number":"NA","everTouched":null},{"id":"test","shape":"rustedHinge","outlier_type":3,"choice":2,"outlierPosition":2,"success":true,"majorityOfMostRegularShapes":true,"rt":5238.299999997253,"rot1":-15,"rot2":-5,"rot3":15,"rot4":-25,"rot5":25,"rot6":5,"dil1":1.125,"dil2":0.875,"dil3":1.075,"dil4":1.025,"dil5":0.925,"dil6":0.975,"rots":[-15,-5,15,-25,25,5],"dils":[1.125,0.875,1.075,1.025,0.925,0.975],"loop_number":"NA","everTouched":null},{"id":"test","shape":"square","outlier_type":1,"choice":2,"outlierPosition":2,"success":true,"majorityOfMostRegularShapes":true,"rt":1910.600000002887,"rot1":-25,"rot2":-15,"rot3":15,"rot4":5,"rot5":-5,"rot6":25,"dil1":1.125,"dil2":0.925,"dil3":0.975,"dil4":0.875,"dil5":1.075,"dil6":1.025,"rots":[-25,-15,15,5,-5,25],"dils":[1.125,0.925,0.975,0.875,1.075,1.025],"loop_number":"NA","everTouched":null},{"id":"test","shape":"random","outlier_type":0,"choice":0,"outlierPosition":4,"success":false,"majorityOfMostRegularShapes":true,"rt":4255.5999999968335,"rot1":25,"rot2":-25,"rot3":5,"rot4":-15,"rot5":-5,"rot6":15,"dil1":0.925,"dil2":1.075,"dil3":1.025,"dil4":0.875,"dil5":0.975,"dil6":1.125,"rots":[25,-25,5,-15,-5,15],"dils":[0.925,1.075,1.025,0.875,0.975,1.125],"loop_number":"NA","everTouched":null},{"id":"test","shape":"hinge","outlier_type":1,"choice":4,"outlierPosition":2,"success":false,"majorityOfMostRegularShapes":true,"rt":5180.29999999993,"rot1":-5,"rot2":-15,"rot3":-25,"rot4":5,"rot5":15,"rot6":25,"dil1":1.025,"dil2":0.925,"dil3":1.075,"dil4":0.975,"dil5":0.875,"dil6":1.125,"rots":[-5,-15,-25,5,15,25],"dils":[1.025,0.925,1.075,0.975,0.875,1.125],"loop_number":"NA","everTouched":null},{"id":"test","shape":"square","outlier_type":2,"choice":3,"outlierPosition":3,"success":true,"majorityOfMostRegularShapes":true,"rt":2875.8000000016764,"rot1":15,"rot2":25,"rot3":-5,"rot4":5,"rot5":-15,"rot6":-25,"dil1":1.125,"dil2":0.925,"dil3":0.975,"dil4":0.875,"dil5":1.075,"dil6":1.025,"rots":[15,25,-5,5,-15,-25],"dils":[1.125,0.925,0.975,0.875,1.075,1.025],"loop_number":"NA","everTouched":null},{"id":"test","shape":"hinge","outlier_type":0,"choice":2,"outlierPosition":2,"success":true,"majorityOfMostRegularShapes":true,"rt":7678.200000002165,"rot1":15,"rot2":5,"rot3":-15,"rot4":25,"rot5":-5,"rot6":-25,"dil1":1.125,"dil2":1.075,"dil3":0.925,"dil4":1.025,"dil5":0.975,"dil6":0.875,"rots":[15,5,-15,25,-5,-25],"dils":[1.125,1.075,0.925,1.025,0.975,0.875],"loop_number":"NA","everTouched":null},{"id":"test","shape":"trapezoid","outlier_type":3,"choice":4,"outlierPosition":4,"success":true,"majorityOfMostRegularShapes":true,"rt":7691.299999998533,"rot1":-25,"rot2":-5,"rot3":25,"rot4":5,"rot5":-15,"rot6":15,"dil1":0.975,"dil2":1.125,"dil3":1.075,"dil4":0.875,"dil5":1.025,"dil6":0.925,"rots":[-25,-5,25,5,-15,15],"dils":[0.975,1.125,1.075,0.875,1.025,0.925],"loop_number":"NA","everTouched":null},{"id":"test","shape":"rustedHinge","outlier_type":1,"choice":1,"outlierPosition":0,"success":false,"majorityOfMostRegularShapes":true,"rt":3808.1999999994878,"rot1":-5,"rot2":25,"rot3":-25,"rot4":5,"rot5":15,"rot6":-15,"dil1":1.075,"dil2":0.875,"dil3":1.125,"dil4":0.925,"dil5":0.975,"dil6":1.025,"rots":[-5,25,-25,5,15,-15],"dils":[1.075,0.875,1.125,0.925,0.975,1.025],"loop_number":"NA","everTouched":null},{"id":"test","shape":"losange","outlier_type":3,"choice":3,"outlierPosition":3,"success":true,"majorityOfMostRegularShapes":true,"rt":4897.499999999069,"rot1":25,"rot2":-15,"rot3":-25,"rot4":5,"rot5":15,"rot6":-5,"dil1":1.025,"dil2":0.925,"dil3":0.875,"dil4":1.075,"dil5":1.125,"dil6":0.975,"rots":[25,-15,-25,5,15,-5],"dils":[1.025,0.925,0.875,1.075,1.125,0.975],"loop_number":"NA","everTouched":null},{"id":"test","shape":"isoTrapezoid","outlier_type":1,"choice":5,"outlierPosition":5,"success":true,"majorityOfMostRegularShapes":true,"rt":3301.6999999963446,"rot1":-25,"rot2":-5,"rot3":5,"rot4":-15,"rot5":25,"rot6":15,"dil1":0.875,"dil2":0.975,"dil3":1.025,"dil4":1.125,"dil5":1.075,"dil6":0.925,"rots":[-25,-5,5,-15,25,15],"dils":[0.875,0.975,1.025,1.125,1.075,0.925],"loop_number":"NA","everTouched":null},{"id":"test","shape":"rectangle","outlier_type":3,"choice":1,"outlierPosition":1,"success":true,"majorityOfMostRegularShapes":true,"rt":3044.00000000163,"rot1":-25,"rot2":15,"rot3":-15,"rot4":25,"rot5":5,"rot6":-5,"dil1":1.075,"dil2":0.875,"dil3":0.925,"dil4":1.025,"dil5":0.975,"dil6":1.125,"rots":[-25,15,-15,25,5,-5],"dils":[1.075,0.875,0.925,1.025,0.975,1.125],"loop_number":"NA","everTouched":null},{"id":"test","shape":"trapezoid","outlier_type":1,"choice":2,"outlierPosition":2,"success":true,"majorityOfMostRegularShapes":true,"rt":1943.5000000011642,"rot1":-15,"rot2":25,"rot3":-25,"rot4":15,"rot5":-5,"rot6":5,"dil1":0.875,"dil2":1.075,"dil3":0.925,"dil4":0.975,"dil5":1.025,"dil6":1.125,"rots":[-15,25,-25,15,-5,5],"dils":[0.875,1.075,0.925,0.975,1.025,1.125],"loop_number":"NA","everTouched":null},{"id":"test","shape":"trapezoid","outlier_type":2,"choice":4,"outlierPosition":5,"success":false,"majorityOfMostRegularShapes":true,"rt":6376.799999998184,"rot1":15,"rot2":-25,"rot3":-5,"rot4":-15,"rot5":25,"rot6":5,"dil1":0.875,"dil2":0.925,"dil3":1.075,"dil4":1.125,"dil5":1.025,"dil6":0.975,"rots":[15,-25,-5,-15,25,5],"dils":[0.875,0.925,1.075,1.125,1.025,0.975],"loop_number":"NA","everTouched":null},{"id":"test","shape":"kite","outlier_type":0,"choice":4,"outlierPosition":5,"success":false,"majorityOfMostRegularShapes":true,"rt":6656.9000000017695,"rot1":5,"rot2":-25,"rot3":-15,"rot4":25,"rot5":-5,"rot6":15,"dil1":0.875,"dil2":0.975,"dil3":1.075,"dil4":1.025,"dil5":1.125,"dil6":0.925,"rots":[5,-25,-15,25,-5,15],"dils":[0.875,0.975,1.075,1.025,1.125,0.925],"loop_number":"NA","everTouched":null},{"id":"test","shape":"isoTrapezoid","outlier_type":2,"choice":4,"outlierPosition":4,"success":true,"majorityOfMostRegularShapes":true,"rt":4655.5999999982305,"rot1":-15,"rot2":-25,"rot3":25,"rot4":5,"rot5":15,"rot6":-5,"dil1":1.075,"dil2":0.975,"dil3":1.125,"dil4":0.875,"dil5":1.025,"dil6":0.925,"rots":[-15,-25,25,5,15,-5],"dils":[1.075,0.975,1.125,0.875,1.025,0.925],"loop_number":"NA","everTouched":null},{"id":"test","shape":"random","outlier_type":2,"choice":1,"outlierPosition":1,"success":true,"majorityOfMostRegularShapes":true,"rt":7302.300000002957,"rot1":5,"rot2":-5,"rot3":-15,"rot4":15,"rot5":-25,"rot6":25,"dil1":1.075,"dil2":0.925,"dil3":0.975,"dil4":0.875,"dil5":1.025,"dil6":1.125,"rots":[5,-5,-15,15,-25,25],"dils":[1.075,0.925,0.975,0.875,1.025,1.125],"loop_number":"NA","everTouched":null},{"id":"test","shape":"square","outlier_type":3,"choice":5,"outlierPosition":5,"success":true,"majorityOfMostRegularShapes":true,"rt":2006.5000000032596,"rot1":15,"rot2":-5,"rot3":-25,"rot4":-15,"rot5":5,"rot6":25,"dil1":1.075,"dil2":1.025,"dil3":0.975,"dil4":0.925,"dil5":1.125,"dil6":0.875,"rots":[15,-5,-25,-15,5,25],"dils":[1.075,1.025,0.975,0.925,1.125,0.875],"loop_number":"NA","everTouched":null},{"id":"test","shape":"losange","outlier_type":2,"choice":3,"outlierPosition":3,"success":true,"majorityOfMostRegularShapes":true,"rt":2920.2000000005355,"rot1":-5,"rot2":15,"rot3":-25,"rot4":5,"rot5":25,"rot6":-15,"dil1":1.125,"dil2":0.875,"dil3":1.075,"dil4":0.925,"dil5":1.025,"dil6":0.975,"rots":[-5,15,-25,5,25,-15],"dils":[1.125,0.875,1.075,0.925,1.025,0.975],"loop_number":"NA","everTouched":null},{"id":"test","shape":"rustedHinge","outlier_type":0,"choice":5,"outlierPosition":5,"success":true,"majorityOfMostRegularShapes":true,"rt":3033.9000000021188,"rot1":-5,"rot2":-25,"rot3":5,"rot4":15,"rot5":25,"rot6":-15,"dil1":0.875,"dil2":1.025,"dil3":1.125,"dil4":0.975,"dil5":1.075,"dil6":0.925,"rots":[-5,-25,5,15,25,-15],"dils":[0.875,1.025,1.125,0.975,1.075,0.925],"loop_number":"NA","everTouched":null},{"id":"test","shape":"parallelogram","outlier_type":2,"choice":0,"outlierPosition":0,"success":true,"majorityOfMostRegularShapes":true,"rt":3771.999999997206,"rot1":15,"rot2":25,"rot3":-25,"rot4":-5,"rot5":5,"rot6":-15,"dil1":1.025,"dil2":0.975,"dil3":0.925,"dil4":1.125,"dil5":0.875,"dil6":1.075,"rots":[15,25,-25,-5,5,-15],"dils":[1.025,0.975,0.925,1.125,0.875,1.075],"loop_number":"NA","everTouched":null},{"id":"test","shape":"rightKite","outlier_type":3,"choice":4,"outlierPosition":1,"success":false,"majorityOfMostRegularShapes":true,"rt":1625.9999999965075,"rot1":25,"rot2":15,"rot3":5,"rot4":-15,"rot5":-5,"rot6":-25,"dil1":0.975,"dil2":1.125,"dil3":1.025,"dil4":0.925,"dil5":0.875,"dil6":1.075,"rots":[25,15,5,-15,-5,-25],"dils":[0.975,1.125,1.025,0.925,0.875,1.075],"loop_number":"NA","everTouched":null}],"desiredDistance":0.3,"trial_type":"oddball-grid","trial_index":3,"time_elapsed":2860332,"internal_node_id":"0.0-3.0","ID":"s9o0vh5jrm"},{"success":true,"trial_type":"fullscreen","trial_index":4,"time_elapsed":2868785,"internal_node_id":"0.0-4.0","ID":"s9o0vh5jrm"}]