[{"success":true,"trial_type":"fullscreen","trial_index":0,"time_elapsed":672132,"internal_node_id":"0.0-0.0","ID":"p3egwams5p"},{"results":[{"id":"train-images","shape":"7","outlier_type":"NA","choice":5,"outlierPosition":5,"success":true,"majorityOfMostRegularShapes":"NA","rt":1394.0000000002328,"rot1":-25,"rot2":5,"rot3":15,"rot4":-15,"rot5":-5,"rot6":25,"dil1":1.125,"dil2":0.925,"dil3":0.875,"dil4":0.975,"dil5":1.025,"dil6":1.075,"rots":[-25,5,15,-15,-5,25],"dils":[1.125,0.925,0.875,0.975,1.025,1.075],"loop_number":1,"everTouched":null},{"id":"train-images","shape":"8","outlier_type":"NA","choice":5,"outlierPosition":5,"success":true,"majorityOfMostRegularShapes":"NA","rt":1294.0999999991618,"rot1":-15,"rot2":-5,"rot3":5,"rot4":-25,"rot5":25,"rot6":15,"dil1":0.875,"dil2":1.125,"dil3":0.975,"dil4":0.925,"dil5":1.025,"dil6":1.075,"rots":[-15,-5,5,-25,25,15],"dils":[0.875,1.125,0.975,0.925,1.025,1.075],"loop_number":1,"everTouched":null},{"id":"train-images","shape":"1","outlier_type":"NA","choice":0,"outlierPosition":0,"success":true,"majorityOfMostRegularShapes":"NA","rt":1480.5000000051223,"rot1":-25,"rot2":15,"rot3":25,"rot4":5,"rot5":-15,"rot6":-5,"dil1":1.025,"dil2":1.075,"dil3":1.125,"dil4":0.925,"dil5":0.975,"dil6":0.875,"rots":[-25,15,25,5,-15,-5],"dils":[1.025,1.075,1.125,0.925,0.975,0.875],"loop_number":1,"everTouched":null},{"id":"train-images","shape":"10","outlier_type":"NA","choice":2,"outlierPosition":2,"success":true,"majorityOfMostRegularShapes":"NA","rt":1309.000000001106,"rot1":5,"rot2":25,"rot3":-25,"rot4":15,"rot5":-15,"rot6":-5,"dil1":1.025,"dil2":1.125,"dil3":1.075,"dil4":0.925,"dil5":0.875,"dil6":0.975,"rots":[5,25,-25,15,-15,-5],"dils":[1.025,1.125,1.075,0.925,0.875,0.975],"loop_number":1,"everTouched":null},{"id":"train-images","shape":"3","outlier_type":"NA","choice":2,"outlierPosition":2,"success":true,"majorityOfMostRegularShapes":"NA","rt":1274.4000000020606,"rot1":-15,"rot2":-5,"rot3":25,"rot4":5,"rot5":-25,"rot6":15,"dil1":0.925,"dil2":1.075,"dil3":0.975,"dil4":0.875,"dil5":1.025,"dil6":1.125,"rots":[-15,-5,25,5,-25,15],"dils":[0.925,1.075,0.975,0.875,1.025,1.125],"loop_number":1,"everTouched":null},{"id":"train-images","shape":"9","outlier_type":"NA","choice":1,"outlierPosition":1,"success":true,"majorityOfMostRegularShapes":"NA","rt":1238.9000000039232,"rot1":5,"rot2":-15,"rot3":25,"rot4":15,"rot5":-25,"rot6":-5,"dil1":0.875,"dil2":0.925,"dil3":0.975,"dil4":1.075,"dil5":1.025,"dil6":1.125,"rots":[5,-15,25,15,-25,-5],"dils":[0.875,0.925,0.975,1.075,1.025,1.125],"loop_number":1,"everTouched":null},{"id":"train-images","shape":"4","outlier_type":"NA","choice":3,"outlierPosition":3,"success":true,"majorityOfMostRegularShapes":"NA","rt":1493.6999999990803,"rot1":-15,"rot2":15,"rot3":-25,"rot4":5,"rot5":-5,"rot6":25,"dil1":0.975,"dil2":0.925,"dil3":0.875,"dil4":1.125,"dil5":1.025,"dil6":1.075,"rots":[-15,15,-25,5,-5,25],"dils":[0.975,0.925,0.875,1.125,1.025,1.075],"loop_number":1,"everTouched":null},{"id":"train-images","shape":"2","outlier_type":"NA","choice":5,"outlierPosition":5,"success":true,"majorityOfMostRegularShapes":"NA","rt":1073.90000000305,"rot1":25,"rot2":-5,"rot3":5,"rot4":-15,"rot5":-25,"rot6":15,"dil1":0.925,"dil2":1.125,"dil3":1.075,"dil4":1.025,"dil5":0.975,"dil6":0.875,"rots":[25,-5,5,-15,-25,15],"dils":[0.925,1.125,1.075,1.025,0.975,0.875],"loop_number":1,"everTouched":null},{"id":"train-images","shape":"5","outlier_type":"NA","choice":5,"outlierPosition":5,"success":true,"majorityOfMostRegularShapes":"NA","rt":1063.5000000038417,"rot1":-5,"rot2":5,"rot3":25,"rot4":15,"rot5":-25,"rot6":-15,"dil1":1.125,"dil2":0.925,"dil3":0.875,"dil4":0.975,"dil5":1.025,"dil6":1.075,"rots":[-5,5,25,15,-25,-15],"dils":[1.125,0.925,0.875,0.975,1.025,1.075],"loop_number":1,"everTouched":null},{"id":"train-images","shape":"6","outlier_type":"NA","choice":0,"outlierPosition":0,"success":true,"majorityOfMostRegularShapes":"NA","rt":1837.4000000039814,"rot1":-5,"rot2":5,"rot3":-15,"rot4":15,"rot5":25,"rot6":-25,"dil1":1.125,"dil2":0.925,"dil3":1.025,"dil4":0.975,"dil5":0.875,"dil6":1.075,"rots":[-5,5,-15,15,25,-25],"dils":[1.125,0.925,1.025,0.975,0.875,1.075],"loop_number":1,"everTouched":null}],"trial_type":"oddball-grid-image","trial_index":1,"time_elapsed":721073,"internal_node_id":"0.0-1.0","ID":"p3egwams5p"},{"results":[{"id":"train","shape":null,"outlier_type":null,"choice":3,"outlierPosition":3,"success":true,"majorityOfMostRegularShapes":null,"rt":1125.6000000066706,"rot1":25,"rot2":-25,"rot3":15,"rot4":-5,"rot5":5,"rot6":-15,"dil1":1.075,"dil2":0.925,"dil3":1.025,"dil4":0.875,"dil5":0.975,"dil6":1.125,"rots":[25,-25,15,-5,5,-15],"dils":[1.075,0.925,1.025,0.875,0.975,1.125],"loop_number":1,"everTouched":null},{"id":"train","shape":null,"outlier_type":null,"choice":5,"outlierPosition":5,"success":true,"majorityOfMostRegularShapes":null,"rt":1048.7000000066473,"rot1":15,"rot2":25,"rot3":-15,"rot4":-25,"rot5":5,"rot6":-5,"dil1":0.875,"dil2":1.075,"dil3":0.975,"dil4":1.125,"dil5":1.025,"dil6":0.925,"rots":[15,25,-15,-25,5,-5],"dils":[0.875,1.075,0.975,1.125,1.025,0.925],"loop_number":1,"everTouched":null},{"id":"train","shape":null,"outlier_type":null,"choice":2,"outlierPosition":2,"success":true,"majorityOfMostRegularShapes":null,"rt":1197.0000000001164,"rot1":-5,"rot2":-15,"rot3":25,"rot4":5,"rot5":15,"rot6":-25,"dil1":1.075,"dil2":0.875,"dil3":1.125,"dil4":1.025,"dil5":0.925,"dil6":0.975,"rots":[-5,-15,25,5,15,-25],"dils":[1.075,0.875,1.125,1.025,0.925,0.975],"loop_number":1,"everTouched":null},{"id":"train","shape":null,"outlier_type":null,"choice":5,"outlierPosition":5,"success":true,"majorityOfMostRegularShapes":null,"rt":1098.5000000000582,"rot1":5,"rot2":-25,"rot3":-15,"rot4":25,"rot5":-5,"rot6":15,"dil1":0.875,"dil2":1.025,"dil3":0.925,"dil4":0.975,"dil5":1.125,"dil6":1.075,"rots":[5,-25,-15,25,-5,15],"dils":[0.875,1.025,0.925,0.975,1.125,1.075],"loop_number":1,"everTouched":null},{"id":"train","shape":null,"outlier_type":null,"choice":2,"outlierPosition":2,"success":true,"majorityOfMostRegularShapes":null,"rt":1031.699999999546,"rot1":15,"rot2":-15,"rot3":5,"rot4":-5,"rot5":25,"rot6":-25,"dil1":1.025,"dil2":0.925,"dil3":0.875,"dil4":0.975,"dil5":1.075,"dil6":1.125,"rots":[15,-15,5,-5,25,-25],"dils":[1.025,0.925,0.875,0.975,1.075,1.125],"loop_number":1,"everTouched":null},{"id":"train","shape":null,"outlier_type":null,"choice":1,"outlierPosition":1,"success":true,"majorityOfMostRegularShapes":null,"rt":1462.2000000017579,"rot1":5,"rot2":-5,"rot3":25,"rot4":15,"rot5":-25,"rot6":-15,"dil1":1.125,"dil2":1.025,"dil3":0.925,"dil4":0.875,"dil5":1.075,"dil6":0.975,"rots":[5,-5,25,15,-25,-15],"dils":[1.125,1.025,0.925,0.875,1.075,0.975],"loop_number":1,"everTouched":null}],"desiredDistance":0.3,"trial_type":"oddball-grid-easy","trial_index":2,"time_elapsed":737123,"internal_node_id":"0.0-2.0","ID":"p3egwams5p"},{"results":[{"id":"test","shape":"trapezoid","outlier_type":3,"choice":2,"outlierPosition":4,"success":false,"majorityOfMostRegularShapes":true,"rt":19875.200000002224,"rot1":15,"rot2":25,"rot3":-25,"rot4":-15,"rot5":-5,"rot6":5,"dil1":1.025,"dil2":0.925,"dil3":1.125,"dil4":0.975,"dil5":0.875,"dil6":1.075,"rots":[15,25,-25,-15,-5,5],"dils":[1.025,0.925,1.125,0.975,0.875,1.075],"loop_number":"NA","everTouched":null},{"id":"test","shape":"kite","outlier_type":2,"choice":2,"outlierPosition":3,"success":false,"majorityOfMostRegularShapes":true,"rt":14593.699999997625,"rot1":25,"rot2":-5,"rot3":15,"rot4":-25,"rot5":5,"rot6":-15,"dil1":1.075,"dil2":1.025,"dil3":0.925,"dil4":0.975,"dil5":1.125,"dil6":0.875,"rots":[25,-5,15,-25,5,-15],"dils":[1.075,1.025,0.925,0.975,1.125,0.875],"loop_number":"NA","everTouched":null},{"id":"test","shape":"parallelogram","outlier_type":0,"choice":1,"outlierPosition":1,"success":true,"majorityOfMostRegularShapes":true,"rt":13094.199999999546,"rot1":-25,"rot2":-15,"rot3":15,"rot4":5,"rot5":-5,"rot6":25,"dil1":0.975,"dil2":1.125,"dil3":0.925,"dil4":1.075,"dil5":1.025,"dil6":0.875,"rots":[-25,-15,15,5,-5,25],"dils":[0.975,1.125,0.925,1.075,1.025,0.875],"loop_number":"NA","everTouched":null},{"id":"test","shape":"rightKite","outlier_type":2,"choice":1,"outlierPosition":4,"success":false,"majorityOfMostRegularShapes":true,"rt":16900.800000003073,"rot1":-25,"rot2":15,"rot3":-15,"rot4":5,"rot5":-5,"rot6":25,"dil1":1.075,"dil2":1.125,"dil3":1.025,"dil4":0.925,"dil5":0.975,"dil6":0.875,"rots":[-25,15,-15,5,-5,25],"dils":[1.075,1.125,1.025,0.925,0.975,0.875],"loop_number":"NA","everTouched":null},{"id":"test","shape":"kite","outlier_type":3,"choice":0,"outlierPosition":0,"success":true,"majorityOfMostRegularShapes":true,"rt":3637.0999999999185,"rot1":-5,"rot2":-15,"rot3":-25,"rot4":25,"rot5":15,"rot6":5,"dil1":1.075,"dil2":0.975,"dil3":0.925,"dil4":0.875,"dil5":1.125,"dil6":1.025,"rots":[-5,-15,-25,25,15,5],"dils":[1.075,0.975,0.925,0.875,1.125,1.025],"loop_number":"NA","everTouched":null},{"id":"test","shape":"rustedHinge","outlier_type":0,"choice":4,"outlierPosition":1,"success":false,"majorityOfMostRegularShapes":true,"rt":8026.499999999942,"rot1":5,"rot2":-15,"rot3":25,"rot4":-5,"rot5":-25,"rot6":15,"dil1":0.975,"dil2":0.925,"dil3":1.025,"dil4":1.075,"dil5":0.875,"dil6":1.125,"rots":[5,-15,25,-5,-25,15],"dils":[0.975,0.925,1.025,1.075,0.875,1.125],"loop_number":"NA","everTouched":null},{"id":"test","shape":"hinge","outlier_type":3,"choice":4,"outlierPosition":4,"success":true,"majorityOfMostRegularShapes":true,"rt":11293.400000002293,"rot1":5,"rot2":-25,"rot3":-5,"rot4":25,"rot5":15,"rot6":-15,"dil1":1.125,"dil2":0.875,"dil3":0.925,"dil4":0.975,"dil5":1.025,"dil6":1.075,"rots":[5,-25,-5,25,15,-15],"dils":[1.125,0.875,0.925,0.975,1.025,1.075],"loop_number":"NA","everTouched":null},{"id":"test","shape":"random","outlier_type":1,"choice":5,"outlierPosition":5,"success":true,"majorityOfMostRegularShapes":true,"rt":6039.599999996368,"rot1":-15,"rot2":-5,"rot3":-25,"rot4":25,"rot5":15,"rot6":5,"dil1":1.025,"dil2":1.075,"dil3":1.125,"dil4":0.875,"dil5":0.975,"dil6":0.925,"rots":[-15,-5,-25,25,15,5],"dils":[1.025,1.075,1.125,0.875,0.975,0.925],"loop_number":"NA","everTouched":null},{"id":"test","shape":"rustedHinge","outlier_type":3,"choice":0,"outlierPosition":0,"success":true,"majorityOfMostRegularShapes":true,"rt":3452.7999999991152,"rot1":25,"rot2":5,"rot3":-15,"rot4":-5,"rot5":-25,"rot6":15,"dil1":0.875,"dil2":0.975,"dil3":1.075,"dil4":0.925,"dil5":1.025,"dil6":1.125,"rots":[25,5,-15,-5,-25,15],"dils":[0.875,0.975,1.075,0.925,1.025,1.125],"loop_number":"NA","everTouched":null},{"id":"test","shape":"rightKite","outlier_type":1,"choice":0,"outlierPosition":0,"success":true,"majorityOfMostRegularShapes":true,"rt":6527.600000001257,"rot1":25,"rot2":15,"rot3":-25,"rot4":-5,"rot5":5,"rot6":-15,"dil1":1.025,"dil2":0.875,"dil3":1.075,"dil4":0.975,"dil5":0.925,"dil6":1.125,"rots":[25,15,-25,-5,5,-15],"dils":[1.025,0.875,1.075,0.975,0.925,1.125],"loop_number":"NA","everTouched":null},{"id":"test","shape":"rectangle","outlier_type":3,"choice":3,"outlierPosition":3,"success":true,"majorityOfMostRegularShapes":true,"rt":4120.9000000017695,"rot1":25,"rot2":-15,"rot3":-25,"rot4":5,"rot5":-5,"rot6":15,"dil1":1.025,"dil2":0.925,"dil3":1.075,"dil4":0.975,"dil5":1.125,"dil6":0.875,"rots":[25,-15,-25,5,-5,15],"dils":[1.025,0.925,1.075,0.975,1.125,0.875],"loop_number":"NA","everTouched":null},{"id":"test","shape":"parallelogram","outlier_type":1,"choice":5,"outlierPosition":5,"success":true,"majorityOfMostRegularShapes":true,"rt":8843.399999997928,"rot1":25,"rot2":-5,"rot3":-15,"rot4":15,"rot5":5,"rot6":-25,"dil1":0.925,"dil2":1.125,"dil3":1.025,"dil4":1.075,"dil5":0.975,"dil6":0.875,"rots":[25,-5,-15,15,5,-25],"dils":[0.925,1.125,1.025,1.075,0.975,0.875],"loop_number":"NA","everTouched":null},{"id":"test","shape":"rightKite","outlier_type":0,"choice":5,"outlierPosition":5,"success":true,"majorityOfMostRegularShapes":true,"rt":7068.400000003865,"rot1":-15,"rot2":25,"rot3":5,"rot4":-5,"rot5":15,"rot6":-25,"dil1":1.075,"dil2":1.125,"dil3":1.025,"dil4":0.875,"dil5":0.975,"dil6":0.925,"rots":[-15,25,5,-5,15,-25],"dils":[1.075,1.125,1.025,0.875,0.975,0.925],"loop_number":"NA","everTouched":null},{"id":"test","shape":"losange","outlier_type":2,"choice":1,"outlierPosition":1,"success":true,"majorityOfMostRegularShapes":true,"rt":3902.6000000012573,"rot1":5,"rot2":-15,"rot3":25,"rot4":15,"rot5":-25,"rot6":-5,"dil1":0.925,"dil2":0.875,"dil3":1.075,"dil4":0.975,"dil5":1.125,"dil6":1.025,"rots":[5,-15,25,15,-25,-5],"dils":[0.925,0.875,1.075,0.975,1.125,1.025],"loop_number":"NA","everTouched":null},{"id":"test","shape":"square","outlier_type":0,"choice":1,"outlierPosition":1,"success":true,"majorityOfMostRegularShapes":true,"rt":3356.8999999989755,"rot1":25,"rot2":-15,"rot3":5,"rot4":-5,"rot5":15,"rot6":-25,"dil1":0.875,"dil2":1.025,"dil3":1.075,"dil4":0.975,"dil5":0.925,"dil6":1.125,"rots":[25,-15,5,-5,15,-25],"dils":[0.875,1.025,1.075,0.975,0.925,1.125],"loop_number":"NA","everTouched":null},{"id":"test","shape":"isoTrapezoid","outlier_type":3,"choice":3,"outlierPosition":3,"success":true,"majorityOfMostRegularShapes":true,"rt":3694.4000000003725,"rot1":5,"rot2":-25,"rot3":-5,"rot4":25,"rot5":15,"rot6":-15,"dil1":1.025,"dil2":0.975,"dil3":1.075,"dil4":0.875,"dil5":0.925,"dil6":1.125,"rots":[5,-25,-5,25,15,-15],"dils":[1.025,0.975,1.075,0.875,0.925,1.125],"loop_number":"NA","everTouched":null},{"id":"test","shape":"kite","outlier_type":0,"choice":3,"outlierPosition":2,"success":false,"majorityOfMostRegularShapes":true,"rt":13446.099999993807,"rot1":-15,"rot2":15,"rot3":-5,"rot4":-25,"rot5":25,"rot6":5,"dil1":1.025,"dil2":0.925,"dil3":1.125,"dil4":0.975,"dil5":0.875,"dil6":1.075,"rots":[-15,15,-5,-25,25,5],"dils":[1.025,0.925,1.125,0.975,0.875,1.075],"loop_number":"NA","everTouched":null},{"id":"test","shape":"trapezoid","outlier_type":1,"choice":0,"outlierPosition":0,"success":true,"majorityOfMostRegularShapes":true,"rt":4465.499999998487,"rot1":15,"rot2":-15,"rot3":-5,"rot4":25,"rot5":-25,"rot6":5,"dil1":1.025,"dil2":1.125,"dil3":0.875,"dil4":0.975,"dil5":1.075,"dil6":0.925,"rots":[15,-15,-5,25,-25,5],"dils":[1.025,1.125,0.875,0.975,1.075,0.925],"loop_number":"NA","everTouched":null},{"id":"test","shape":"parallelogram","outlier_type":3,"choice":2,"outlierPosition":2,"success":true,"majorityOfMostRegularShapes":true,"rt":5435.100000002421,"rot1":15,"rot2":25,"rot3":5,"rot4":-25,"rot5":-15,"rot6":-5,"dil1":1.125,"dil2":1.075,"dil3":1.025,"dil4":0.975,"dil5":0.925,"dil6":0.875,"rots":[15,25,5,-25,-15,-5],"dils":[1.125,1.075,1.025,0.975,0.925,0.875],"loop_number":"NA","everTouched":null},{"id":"test","shape":"hinge","outlier_type":2,"choice":4,"outlierPosition":4,"success":true,"majorityOfMostRegularShapes":true,"rt":9084.100000000093,"rot1":15,"rot2":-15,"rot3":25,"rot4":-25,"rot5":5,"rot6":-5,"dil1":1.075,"dil2":0.875,"dil3":1.025,"dil4":0.925,"dil5":0.975,"dil6":1.125,"rots":[15,-15,25,-25,5,-5],"dils":[1.075,0.875,1.025,0.925,0.975,1.125],"loop_number":"NA","everTouched":null},{"id":"test","shape":"losange","outlier_type":0,"choice":3,"outlierPosition":3,"success":true,"majorityOfMostRegularShapes":true,"rt":6451.800000002491,"rot1":-15,"rot2":25,"rot3":5,"rot4":-25,"rot5":-5,"rot6":15,"dil1":1.025,"dil2":1.125,"dil3":1.075,"dil4":0.925,"dil5":0.975,"dil6":0.875,"rots":[-15,25,5,-25,-5,15],"dils":[1.025,1.125,1.075,0.925,0.975,0.875],"loop_number":"NA","everTouched":null},{"id":"test","shape":"trapezoid","outlier_type":2,"choice":3,"outlierPosition":3,"success":true,"majorityOfMostRegularShapes":true,"rt":6269.199999995064,"rot1":25,"rot2":-15,"rot3":15,"rot4":-25,"rot5":5,"rot6":-5,"dil1":1.125,"dil2":0.875,"dil3":1.025,"dil4":0.925,"dil5":1.075,"dil6":0.975,"rots":[25,-15,15,-25,5,-5],"dils":[1.125,0.875,1.025,0.925,1.075,0.975],"loop_number":"NA","everTouched":null},{"id":"test","shape":"hinge","outlier_type":0,"choice":2,"outlierPosition":1,"success":false,"majorityOfMostRegularShapes":true,"rt":7347.200000003795,"rot1":-5,"rot2":5,"rot3":25,"rot4":-15,"rot5":-25,"rot6":15,"dil1":1.025,"dil2":1.125,"dil3":0.875,"dil4":1.075,"dil5":0.975,"dil6":0.925,"rots":[-5,5,25,-15,-25,15],"dils":[1.025,1.125,0.875,1.075,0.975,0.925],"loop_number":"NA","everTouched":null},{"id":"test","shape":"random","outlier_type":2,"choice":5,"outlierPosition":1,"success":false,"majorityOfMostRegularShapes":true,"rt":25040.899999999907,"rot1":5,"rot2":-5,"rot3":15,"rot4":-25,"rot5":25,"rot6":-15,"dil1":1.025,"dil2":0.975,"dil3":0.925,"dil4":1.125,"dil5":1.075,"dil6":0.875,"rots":[5,-5,15,-25,25,-15],"dils":[1.025,0.975,0.925,1.125,1.075,0.875],"loop_number":"NA","everTouched":null},{"id":"test","shape":"losange","outlier_type":1,"choice":5,"outlierPosition":5,"success":true,"majorityOfMostRegularShapes":true,"rt":1965.700000000652,"rot1":-5,"rot2":5,"rot3":25,"rot4":-15,"rot5":-25,"rot6":15,"dil1":1.125,"dil2":0.925,"dil3":1.075,"dil4":0.875,"dil5":1.025,"dil6":0.975,"rots":[-5,5,25,-15,-25,15],"dils":[1.125,0.925,1.075,0.875,1.025,0.975],"loop_number":"NA","everTouched":null},{"id":"test","shape":"parallelogram","outlier_type":2,"choice":2,"outlierPosition":2,"success":true,"majorityOfMostRegularShapes":true,"rt":3692.399999999907,"rot1":-15,"rot2":25,"rot3":-5,"rot4":-25,"rot5":5,"rot6":15,"dil1":0.875,"dil2":1.125,"dil3":1.025,"dil4":0.975,"dil5":0.925,"dil6":1.075,"rots":[-15,25,-5,-25,5,15],"dils":[0.875,1.125,1.025,0.975,0.925,1.075],"loop_number":"NA","everTouched":null},{"id":"test","shape":"rectangle","outlier_type":0,"choice":1,"outlierPosition":1,"success":true,"majorityOfMostRegularShapes":true,"rt":3772.1999999993714,"rot1":15,"rot2":-15,"rot3":-5,"rot4":25,"rot5":-25,"rot6":5,"dil1":0.975,"dil2":1.125,"dil3":1.025,"dil4":0.925,"dil5":1.075,"dil6":0.875,"rots":[15,-15,-5,25,-25,5],"dils":[0.975,1.125,1.025,0.925,1.075,0.875],"loop_number":"NA","everTouched":null},{"id":"test","shape":"rightKite","outlier_type":3,"choice":5,"outlierPosition":5,"success":true,"majorityOfMostRegularShapes":true,"rt":6086.100000000442,"rot1":-15,"rot2":-25,"rot3":15,"rot4":25,"rot5":5,"rot6":-5,"dil1":0.975,"dil2":1.025,"dil3":0.925,"dil4":1.125,"dil5":1.075,"dil6":0.875,"rots":[-15,-25,15,25,5,-5],"dils":[0.975,1.025,0.925,1.125,1.075,0.875],"loop_number":"NA","everTouched":null},{"id":"test","shape":"square","outlier_type":1,"choice":5,"outlierPosition":5,"success":true,"majorityOfMostRegularShapes":true,"rt":2635.300000001793,"rot1":-5,"rot2":25,"rot3":-15,"rot4":-25,"rot5":15,"rot6":5,"dil1":1.025,"dil2":1.125,"dil3":0.925,"dil4":1.075,"dil5":0.975,"dil6":0.875,"rots":[-5,25,-15,-25,15,5],"dils":[1.025,1.125,0.925,1.075,0.975,0.875],"loop_number":"NA","everTouched":null},{"id":"test","shape":"random","outlier_type":0,"choice":2,"outlierPosition":4,"success":false,"majorityOfMostRegularShapes":true,"rt":12101.699999999255,"rot1":-5,"rot2":15,"rot3":-25,"rot4":25,"rot5":-15,"rot6":5,"dil1":0.875,"dil2":0.925,"dil3":1.025,"dil4":1.075,"dil5":0.975,"dil6":1.125,"rots":[-5,15,-25,25,-15,5],"dils":[0.875,0.925,1.025,1.075,0.975,1.125],"loop_number":"NA","everTouched":null},{"id":"test","shape":"rectangle","outlier_type":1,"choice":2,"outlierPosition":2,"success":true,"majorityOfMostRegularShapes":true,"rt":2743.099999999744,"rot1":-15,"rot2":15,"rot3":5,"rot4":-25,"rot5":25,"rot6":-5,"dil1":1.025,"dil2":0.925,"dil3":0.975,"dil4":1.125,"dil5":0.875,"dil6":1.075,"rots":[-15,15,5,-25,25,-5],"dils":[1.025,0.925,0.975,1.125,0.875,1.075],"loop_number":"NA","everTouched":null},{"id":"test","shape":"trapezoid","outlier_type":0,"choice":4,"outlierPosition":4,"success":true,"majorityOfMostRegularShapes":true,"rt":10191.600000005565,"rot1":-15,"rot2":5,"rot3":-5,"rot4":15,"rot5":-25,"rot6":25,"dil1":1.125,"dil2":0.875,"dil3":0.925,"dil4":1.075,"dil5":0.975,"dil6":1.025,"rots":[-15,5,-5,15,-25,25],"dils":[1.125,0.875,0.925,1.075,0.975,1.025],"loop_number":"NA","everTouched":null},{"id":"test","shape":"losange","outlier_type":3,"choice":0,"outlierPosition":0,"success":true,"majorityOfMostRegularShapes":true,"rt":1648.5000000029104,"rot1":5,"rot2":25,"rot3":15,"rot4":-25,"rot5":-5,"rot6":-15,"dil1":1.025,"dil2":0.875,"dil3":1.125,"dil4":0.975,"dil5":0.925,"dil6":1.075,"rots":[5,25,15,-25,-5,-15],"dils":[1.025,0.875,1.125,0.975,0.925,1.075],"loop_number":"NA","everTouched":null},{"id":"test","shape":"rustedHinge","outlier_type":2,"choice":3,"outlierPosition":2,"success":false,"majorityOfMostRegularShapes":true,"rt":8131.799999995506,"rot1":-15,"rot2":15,"rot3":5,"rot4":25,"rot5":-5,"rot6":-25,"dil1":1.025,"dil2":1.125,"dil3":1.075,"dil4":0.925,"dil5":0.975,"dil6":0.875,"rots":[-15,15,5,25,-5,-25],"dils":[1.025,1.125,1.075,0.925,0.975,0.875],"loop_number":"NA","everTouched":null},{"id":"test","shape":"random","outlier_type":3,"choice":5,"outlierPosition":5,"success":true,"majorityOfMostRegularShapes":true,"rt":8613.600000004168,"rot1":-5,"rot2":25,"rot3":-15,"rot4":-25,"rot5":5,"rot6":15,"dil1":1.125,"dil2":0.975,"dil3":1.075,"dil4":0.875,"dil5":0.925,"dil6":1.025,"rots":[-5,25,-15,-25,5,15],"dils":[1.125,0.975,1.075,0.875,0.925,1.025],"loop_number":"NA","everTouched":null},{"id":"test","shape":"isoTrapezoid","outlier_type":1,"choice":0,"outlierPosition":2,"success":false,"majorityOfMostRegularShapes":true,"rt":2742.200000000652,"rot1":15,"rot2":25,"rot3":5,"rot4":-15,"rot5":-5,"rot6":-25,"dil1":1.025,"dil2":0.975,"dil3":0.925,"dil4":1.125,"dil5":1.075,"dil6":0.875,"rots":[15,25,5,-15,-5,-25],"dils":[1.025,0.975,0.925,1.125,1.075,0.875],"loop_number":"NA","everTouched":null},{"id":"test","shape":"rectangle","outlier_type":2,"choice":4,"outlierPosition":4,"success":true,"majorityOfMostRegularShapes":true,"rt":1201.699999997858,"rot1":25,"rot2":15,"rot3":-25,"rot4":5,"rot5":-15,"rot6":-5,"dil1":1.025,"dil2":1.075,"dil3":0.975,"dil4":0.925,"dil5":0.875,"dil6":1.125,"rots":[25,15,-25,5,-15,-5],"dils":[1.025,1.075,0.975,0.925,0.875,1.125],"loop_number":"NA","everTouched":null},{"id":"test","shape":"isoTrapezoid","outlier_type":0,"choice":0,"outlierPosition":1,"success":false,"majorityOfMostRegularShapes":true,"rt":23430.100000004983,"rot1":-25,"rot2":-15,"rot3":15,"rot4":-5,"rot5":5,"rot6":25,"dil1":0.875,"dil2":0.925,"dil3":0.975,"dil4":1.125,"dil5":1.075,"dil6":1.025,"rots":[-25,-15,15,-5,5,25],"dils":[0.875,0.925,0.975,1.125,1.075,1.025],"loop_number":"NA","everTouched":null},{"id":"test","shape":"rustedHinge","outlier_type":1,"choice":0,"outlierPosition":0,"success":true,"majorityOfMostRegularShapes":true,"rt":3527.9000000009546,"rot1":15,"rot2":-5,"rot3":5,"rot4":-15,"rot5":-25,"rot6":25,"dil1":1.125,"dil2":1.025,"dil3":0.975,"dil4":0.875,"dil5":1.075,"dil6":0.925,"rots":[15,-5,5,-15,-25,25],"dils":[1.125,1.025,0.975,0.875,1.075,0.925],"loop_number":"NA","everTouched":null},{"id":"test","shape":"square","outlier_type":2,"choice":1,"outlierPosition":1,"success":true,"majorityOfMostRegularShapes":true,"rt":1755.8999999965308,"rot1":-5,"rot2":5,"rot3":25,"rot4":15,"rot5":-25,"rot6":-15,"dil1":1.025,"dil2":0.875,"dil3":0.975,"dil4":1.125,"dil5":1.075,"dil6":0.925,"rots":[-5,5,25,15,-25,-15],"dils":[1.025,0.875,0.975,1.125,1.075,0.925],"loop_number":"NA","everTouched":null},{"id":"test","shape":"kite","outlier_type":1,"choice":2,"outlierPosition":2,"success":true,"majorityOfMostRegularShapes":true,"rt":6885.999999998603,"rot1":5,"rot2":15,"rot3":-5,"rot4":-15,"rot5":25,"rot6":-25,"dil1":0.975,"dil2":1.075,"dil3":1.125,"dil4":0.875,"dil5":0.925,"dil6":1.025,"rots":[5,15,-5,-15,25,-25],"dils":[0.975,1.075,1.125,0.875,0.925,1.025],"loop_number":"NA","everTouched":null},{"id":"test","shape":"isoTrapezoid","outlier_type":2,"choice":5,"outlierPosition":5,"success":true,"majorityOfMostRegularShapes":true,"rt":2993.1999999971595,"rot1":25,"rot2":-25,"rot3":-5,"rot4":5,"rot5":15,"rot6":-15,"dil1":0.925,"dil2":1.125,"dil3":0.875,"dil4":1.025,"dil5":0.975,"dil6":1.075,"rots":[25,-25,-5,5,15,-15],"dils":[0.925,1.125,0.875,1.025,0.975,1.075],"loop_number":"NA","everTouched":null},{"id":"test","shape":"square","outlier_type":3,"choice":3,"outlierPosition":3,"success":true,"majorityOfMostRegularShapes":true,"rt":1580.6000000010245,"rot1":5,"rot2":15,"rot3":-25,"rot4":25,"rot5":-5,"rot6":-15,"dil1":1.075,"dil2":1.125,"dil3":0.925,"dil4":0.975,"dil5":0.875,"dil6":1.025,"rots":[5,15,-25,25,-5,-15],"dils":[1.075,1.125,0.925,0.975,0.875,1.025],"loop_number":"NA","everTouched":null},{"id":"test","shape":"hinge","outlier_type":1,"choice":4,"outlierPosition":3,"success":false,"majorityOfMostRegularShapes":true,"rt":3880.2999999970198,"rot1":-25,"rot2":5,"rot3":15,"rot4":-15,"rot5":25,"rot6":-5,"dil1":0.975,"dil2":1.025,"dil3":0.925,"dil4":1.125,"dil5":0.875,"dil6":1.075,"rots":[-25,5,15,-15,25,-5],"dils":[0.975,1.025,0.925,1.125,0.875,1.075],"loop_number":"NA","everTouched":null}],"desiredDistance":0.3,"trial_type":"oddball-grid","trial_index":3,"time_elapsed":1124139,"internal_node_id":"0.0-3.0","ID":"p3egwams5p"},{"success":true,"trial_type":"fullscreen","trial_index":4,"time_elapsed":1126167,"internal_node_id":"0.0-4.0","ID":"p3egwams5p"}]