"success","trial_type","trial_index","time_elapsed","internal_node_id","ID","rt","stimulus","button_pressed","button_pressed_text"
"true","fullscreen","0","11500","0.0-0.0","tv1ychurkt","","","",""
"","html-button-response","1","12437","0.0-1.0","tv1ychurkt","917.1999999962281"," ","1","9"
"","html-button-response","2","13360","0.0-2.0","tv1ychurkt","919.3999999988591"," ","1","6"
"","html-button-response","3","15329","0.0-3.0","tv1ychurkt","1965.8000000054017"," ","0","5"
"","html-button-response","4","16251","0.0-4.0","tv1ychurkt","919.6999999985565"," ","0","3"
"","html-button-response","5","17051","0.0-5.0","tv1ychurkt","796.8000000037136"," ","0","4"
"","html-button-response","6","17790","0.0-6.0","tv1ychurkt","735.4000000050291"," ","1","5"
"","html-button-response","7","18638","0.0-7.0","tv1ychurkt","845.3000000008615"," ","1","6"
"","html-button-response","8","19375","0.0-8.0","tv1ychurkt","734.1999999989639"," ","0","8"
"","html-button-response","9","20103","0.0-9.0","tv1ychurkt","724.6999999988475"," ","1","7"
"","html-button-response","10","20949","0.0-10.0","tv1ychurkt","843.6999999976251"," ","0","2"
"","html-button-response","11","21838","0.0-11.0","tv1ychurkt","886.2000000008265"," ","0","6"
"","html-button-response","12","22554","0.0-12.0","tv1ychurkt","712.8999999986263"," ","1","4"
"","html-button-response","13","23340","0.0-13.0","tv1ychurkt","783.3000000027823"," ","0","9"
"","html-button-response","14","24084","0.0-14.0","tv1ychurkt","741.0999999992782"," ","1","8"
"","html-button-response","15","24795","0.0-15.0","tv1ychurkt","707.5000000040745"," ","1","5"
"","html-button-response","16","25581","0.0-16.0","tv1ychurkt","783.4999999977299"," ","0","7"
"","html-button-response","17","26430","0.0-17.0","tv1ychurkt","846.3000000047032"," ","1","9"
"","html-button-response","18","27213","0.0-18.0","tv1ychurkt","779.6999999991385"," ","0","7"
"","html-button-response","19","27980","0.0-19.0","tv1ychurkt","763.8000000006286"," ","0","5"
"","html-button-response","20","28879","0.0-20.0","tv1ychurkt","895.7999999984168"," ","1","9"
"","html-button-response","21","29581","0.0-21.0","tv1ychurkt","699.7000000046683"," ","1","4"
"","html-button-response","22","30349","0.0-22.0","tv1ychurkt","764.4000000000233"," ","0","8"
"","html-button-response","23","31115","0.0-23.0","tv1ychurkt","763.3999999961816"," ","1","2"
"","html-button-response","24","31890","0.0-24.0","tv1ychurkt","772.1000000019558"," ","0","4"
"","html-button-response","25","32739","0.0-25.0","tv1ychurkt","846.1000000024796"," ","1","6"
"","html-button-response","26","33458","0.0-26.0","tv1ychurkt","715.6000000031781"," ","0","8"
"","html-button-response","27","34224","0.0-27.0","tv1ychurkt","763.1000000037602"," ","1","9"
"","html-button-response","28","35181","0.0-28.0","tv1ychurkt","953.6999999982072"," ","1","5"
"","html-button-response","29","35913","0.0-29.0","tv1ychurkt","721.9000000040978"," ","0","6"
"","html-button-response","30","36647","0.0-30.0","tv1ychurkt","731.3999999969383"," ","1","7"
"","html-button-response","31","37658","0.0-31.0","tv1ychurkt","1007.499999999709"," ","1","6"
"","html-button-response","32","38459","0.0-32.0","tv1ychurkt","797.7000000028056"," ","0","4"
"","html-button-response","33","39290","0.0-33.0","tv1ychurkt","828.2000000035623"," ","0","2"
"","html-button-response","34","40065","0.0-34.0","tv1ychurkt","771.8999999997322"," ","1","8"
"","html-button-response","35","41759","0.0-35.0","tv1ychurkt","1690.999999998894"," ","1","5"
"","html-button-response","36","42552","0.0-36.0","tv1ychurkt","790.1000000056229"," ","0","8"
"","html-button-response","37","43352","0.0-37.0","tv1ychurkt","796.4000000065425"," ","1","3"
"","html-button-response","38","44193","0.0-38.0","tv1ychurkt","838.1000000008498"," ","0","6"
"","html-button-response","39","45115","0.0-39.0","tv1ychurkt","919.6999999985565"," ","0","9"
"","html-button-response","40","45925","0.0-40.0","tv1ychurkt","807.0000000006985"," ","1","8"
"","html-button-response","41","46751","0.0-41.0","tv1ychurkt","822.599999999511"," ","0","6"
"","html-button-response","42","47583","0.0-42.0","tv1ychurkt","828.800000002957"," ","0","5"
"","html-button-response","43","48727","0.0-43.0","tv1ychurkt","1141.5000000051805"," ","0","7"
"","html-button-response","44","49438","0.0-44.0","tv1ychurkt","707.300000001851"," ","1","5"
"","html-button-response","45","50498","0.0-45.0","tv1ychurkt","1057.199999995646"," ","1","9"
"","html-button-response","46","51291","0.0-46.0","tv1ychurkt","789.4999999989523"," ","0","4"
"","html-button-response","47","52402","0.0-47.0","tv1ychurkt","1108.0999999976484"," ","0","9"
"","html-button-response","48","53177","0.0-48.0","tv1ychurkt","772.4999999991269"," ","1","8"
"","html-button-response","49","54438","0.0-49.0","tv1ychurkt","1258.1000000063796"," ","1","4"
"","html-button-response","50","55154","0.0-50.0","tv1ychurkt","712.4000000039814"," ","1","6"
"","html-button-response","51","55847","0.0-51.0","tv1ychurkt","689.9000000048545"," ","0","5"
"","html-button-response","52","56973","0.0-52.0","tv1ychurkt","1122.9000000021188"," ","0","9"
"","html-button-response","53","57879","0.0-53.0","tv1ychurkt","902.9999999984284"," ","0","5"
"","html-button-response","54","58613","0.0-54.0","tv1ychurkt","731.099999997241"," ","1","2"
"","html-button-response","55","59430","0.0-55.0","tv1ychurkt","813.6999999987893"," ","0","7"
"","html-button-response","56","60139","0.0-56.0","tv1ychurkt","706.5999999977066"," ","1","9"
"","html-button-response","57","60842","0.0-57.0","tv1ychurkt","700.1999999993131"," ","0","8"
"","html-button-response","58","61799","0.0-58.0","tv1ychurkt","953.9000000004307"," ","0","6"
"","html-button-response","59","62916","0.0-59.0","tv1ychurkt","1113.9000000039232"," ","1","7"
"","html-button-response","60","63823","0.0-60.0","tv1ychurkt","903.3999999955995"," ","1","3"
"true","fullscreen","61","64826","0.0-61.0","tv1ychurkt","","","",""
