"success","trial_type","trial_index","time_elapsed","internal_node_id","ID","rt","stimulus","button_pressed","button_pressed_text"
"true","fullscreen","0","13437","0.0-0.0","kefszyv1jc","","","",""
"","html-button-response","1","14481","0.0-1.0","kefszyv1jc","1024.0000000012515"," ","1","9"
"","html-button-response","2","15225","0.0-2.0","kefszyv1jc","739.6999999982654"," ","1","6"
"","html-button-response","3","15996","0.0-3.0","kefszyv1jc","767.4000000006345"," ","0","5"
"","html-button-response","4","16702","0.0-4.0","kefszyv1jc","703.1999999999243"," ","0","3"
"","html-button-response","5","17341","0.0-5.0","kefszyv1jc","635.3999999992084"," ","0","4"
"","html-button-response","6","17929","0.0-6.0","kefszyv1jc","583.8000000003376"," ","1","5"
"","html-button-response","7","18624","0.0-7.0","kefszyv1jc","692.1000000002095"," ","1","6"
"","html-button-response","8","19201","0.0-8.0","kefszyv1jc","573.5999999997148"," ","0","8"
"","html-button-response","9","19788","0.0-9.0","kefszyv1jc","582.8000000001339"," ","1","7"
"","html-button-response","10","20417","0.0-10.0","kefszyv1jc","626.0999999976775"," ","0","2"
"","html-button-response","11","21110","0.0-11.0","kefszyv1jc","689.8000000001048"," ","0","6"
"","html-button-response","12","21706","0.0-12.0","kefszyv1jc","592.4999999988358"," ","1","4"
"","html-button-response","13","22282","0.0-13.0","kefszyv1jc","573.3000000000175"," ","0","9"
"","html-button-response","14","22919","0.0-14.0","kefszyv1jc","632.900000000518"," ","1","8"
"","html-button-response","15","23514","0.0-15.0","kefszyv1jc","592.0999999980268"," ","1","5"
"","html-button-response","16","24109","0.0-16.0","kefszyv1jc","591.8000000019674"," ","0","7"
"","html-button-response","17","24711","0.0-17.0","kefszyv1jc","599.0999999994528"," ","1","9"
"","html-button-response","18","25281","0.0-18.0","kefszyv1jc","566.899999997986"," ","0","7"
"","html-button-response","19","25844","0.0-19.0","kefszyv1jc","558.8999999999942"," ","0","5"
"","html-button-response","20","26395","0.0-20.0","kefszyv1jc","547.3999999994703"," ","1","9"
"","html-button-response","21","27015","0.0-21.0","kefszyv1jc","616.8999999972584"," ","1","4"
"","html-button-response","22","27608","0.0-22.0","kefszyv1jc","590.0000000001455"," ","0","8"
"","html-button-response","23","28211","0.0-23.0","kefszyv1jc","599.900000001071"," ","1","2"
"","html-button-response","24","28771","0.0-24.0","kefszyv1jc","556.5999999998894"," ","0","4"
"","html-button-response","25","29373","0.0-25.0","kefszyv1jc","599.0999999994528"," ","1","6"
"","html-button-response","26","30198","0.0-26.0","kefszyv1jc","821.8000000015309"," ","0","8"
"","html-button-response","27","30760","0.0-27.0","kefszyv1jc","559.1000000022177"," ","1","9"
"","html-button-response","28","31411","0.0-28.0","kefszyv1jc","647.0999999983178"," ","1","5"
"","html-button-response","29","31979","0.0-29.0","kefszyv1jc","565.3000000020256"," ","0","6"
"","html-button-response","30","32532","0.0-30.0","kefszyv1jc","549.4999999973516"," ","1","7"
"","html-button-response","31","33315","0.0-31.0","kefszyv1jc","779.2000000008557"," ","1","6"
"","html-button-response","32","33924","0.0-32.0","kefszyv1jc","606.4000000005763"," ","0","4"
"","html-button-response","33","34592","0.0-33.0","kefszyv1jc","664.8000000022876"," ","0","2"
"","html-button-response","34","35328","0.0-34.0","kefszyv1jc","732.2999999996682"," ","0","9"
"","html-button-response","35","35976","0.0-35.0","kefszyv1jc","644.9000000029628"," ","1","5"
"","html-button-response","36","36717","0.0-36.0","kefszyv1jc","738.6000000005879"," ","0","8"
"","html-button-response","37","37303","0.0-37.0","kefszyv1jc","582.6999999990221"," ","1","3"
"","html-button-response","38","37937","0.0-38.0","kefszyv1jc","630.1000000021304"," ","1","7"
"","html-button-response","39","38524","0.0-39.0","kefszyv1jc","583.6999999992258"," ","0","9"
"","html-button-response","40","39107","0.0-40.0","kefszyv1jc","580.3000000014435"," ","1","8"
"","html-button-response","41","39735","0.0-41.0","kefszyv1jc","624.5999999991909"," ","0","6"
"","html-button-response","42","40426","0.0-42.0","kefszyv1jc","687.9000000008091"," ","0","5"
"","html-button-response","43","41012","0.0-43.0","kefszyv1jc","572.199999998702"," ","0","7"
"","html-button-response","44","41597","0.0-44.0","kefszyv1jc","581.2000000005355"," ","1","5"
"","html-button-response","45","42527","0.0-45.0","kefszyv1jc","927.7000000001863"," ","1","9"
"","html-button-response","46","43081","0.0-46.0","kefszyv1jc","550.6999999997788"," ","0","4"
"","html-button-response","47","43697","0.0-47.0","kefszyv1jc","612.3999999981606"," ","0","9"
"","html-button-response","48","44341","0.0-48.0","kefszyv1jc","640.6999999999243"," ","1","8"
"","html-button-response","49","44934","0.0-49.0","kefszyv1jc","589.6000000029744"," ","1","4"
"","html-button-response","50","45525","0.0-50.0","kefszyv1jc","588.4999999980209"," ","1","6"
"","html-button-response","51","46071","0.0-51.0","kefszyv1jc","542.2999999973399"," ","0","5"
"","html-button-response","52","46836","0.0-52.0","kefszyv1jc","761.5000000005239"," ","0","9"
"","html-button-response","53","48113","0.0-53.0","kefszyv1jc","1273.800000002666"," ","0","5"
"","html-button-response","54","48657","0.0-54.0","kefszyv1jc","541.7000000015832"," ","1","2"
"","html-button-response","55","49440","0.0-55.0","kefszyv1jc","779.8000000002503"," ","0","7"
"","html-button-response","56","50010","0.0-56.0","kefszyv1jc","565.8999999977823"," ","1","9"
"","html-button-response","57","50592","0.0-57.0","kefszyv1jc","578.799999999319"," ","0","8"
"","html-button-response","58","51068","0.0-58.0","kefszyv1jc","473.5000000000582"," ","1","5"
"","html-button-response","59","51795","0.0-59.0","kefszyv1jc","723.7000000022817"," ","1","7"
"","html-button-response","60","52413","0.0-60.0","kefszyv1jc","614.1999999999825"," ","1","3"
"true","fullscreen","61","53416","0.0-61.0","kefszyv1jc","","","",""
