"success","trial_type","trial_index","time_elapsed","internal_node_id","ID","rt","stimulus","button_pressed","button_pressed_text"
"true","fullscreen","0","6441","0.0-0.0","y122temxxx","","","",""
"","html-button-response","1","7548","0.0-1.0-0.0","y122temxxx","1085.2000000013504","<span class=stimul>à</span>","0","Correct"
"","html-button-response","2","8205","0.0-1.0-0.1","y122temxxx","652.3999999990338","<span class=stimul>où</span>","0","Correct"
"","html-button-response","3","9210","0.0-1.0-0.2","y122temxxx","1000.0999999974738","<span class=stimul>la</span>","0","Correct"
"","html-button-response","4","9726","0.0-1.0-0.3","y122temxxx","511.3000000019383","<span class=stimul>au</span>","0","Correct"
"","html-button-response","5","10711","0.0-1.0-0.4","y122temxxx","981.1999999983527","<span class=stimul>tu</span>","0","Correct"
"","html-button-response","6","11221","0.0-1.0-0.5","y122temxxx","505.39999999818974","<span class=stimul>un</span>","0","Correct"
"","html-button-response","7","11730","0.0-1.0-0.6","y122temxxx","504.89999999990687","<span class=stimul>il</span>","0","Correct"
"","html-button-response","8","12182","0.0-1.0-0.7","y122temxxx","448.70000000082655","<span class=stimul>été</span>","0","Correct"
"","html-button-response","9","12684","0.0-1.0-0.8","y122temxxx","497.29999999908614","<span class=stimul>on</span>","0","Correct"
"","html-button-response","10","13177","0.0-1.0-0.9","y122temxxx","489.19999999998254","<span class=stimul>mur</span>","0","Correct"
"","html-button-response","11","13760","0.0-1.0-0.10","y122temxxx","579.4999999998254","<span class=stimul>ni</span>","0","Correct"
"","html-button-response","12","14240","0.0-1.0-0.11","y122temxxx","475.3999999993539","<span class=stimul>sur</span>","0","Correct"
"","html-button-response","13","14707","0.0-1.0-0.12","y122temxxx","463.10000000084983","<span class=stimul>qui</span>","0","Correct"
"","html-button-response","14","15137","0.0-1.0-0.13","y122temxxx","425.99999999947613","<span class=stimul>vélo</span>","0","Correct"
"","html-button-response","15","15603","0.0-1.0-0.14","y122temxxx","462.5000000014552","<span class=stimul>par</span>","0","Correct"
"","html-button-response","16","16029","0.0-1.0-0.15","y122temxxx","421.6999999989639","<span class=stimul>feu</span>","0","Correct"
"","html-button-response","17","16481","0.0-1.0-0.16","y122temxxx","448.1000000014319","<span class=stimul>ce</span>","0","Correct"
"","html-button-response","18","16944","0.0-1.0-0.17","y122temxxx","459.30000000225846","<span class=stimul>peur</span>","0","Correct"
"","html-button-response","19","17446","0.0-1.0-0.18","y122temxxx","497.6999999998952","<span class=stimul>ami</span>","0","Correct"
"","html-button-response","20","17913","0.0-1.0-0.19","y122temxxx","463.10000000084983","<span class=stimul>moto</span>","0","Correct"
"","html-button-response","21","18424","0.0-1.0-0.20","y122temxxx","507.3999999985972","<span class=stimul>peau</span>","0","Correct"
"","html-button-response","22","18899","0.0-1.0-0.21","y122temxxx","470.9000000002561","<span class=stimul>lune</span>","0","Correct"
"","html-button-response","23","19327","0.0-1.0-0.22","y122temxxx","424.2000000012922","<span class=stimul>gare</span>","0","Correct"
"","html-button-response","24","19812","0.0-1.0-0.23","y122temxxx","480.70000000006985","<span class=stimul>lire</span>","0","Correct"
"","html-button-response","25","20392","0.0-1.0-0.24","y122temxxx","577.000000001135","<span class=stimul>bon</span>","0","Correct"
"","html-button-response","26","20812","0.0-1.0-0.25","y122temxxx","415.0999999983469","<span class=stimul>mardi</span>","0","Correct"
"","html-button-response","27","21248","0.0-1.0-0.26","y122temxxx","432.6999999975669","<span class=stimul>col</span>","0","Correct"
"","html-button-response","28","21635","0.0-1.0-0.27","y122temxxx","383.4000000024389","<span class=stimul>avril</span>","0","Correct"
"","html-button-response","29","22025","0.0-1.0-0.28","y122temxxx","385.7000000025437","<span class=stimul>roi</span>","0","Correct"
"","html-button-response","30","22420","0.0-1.0-0.29","y122temxxx","391.39999999679276","<span class=stimul>faire</span>","0","Correct"
"","html-button-response","31","22814","0.0-1.0-0.30","y122temxxx","390.1999999980035","<span class=stimul>facile</span>","0","Correct"
"","html-button-response","32","23192","0.0-1.0-0.31","y122temxxx","374.10000000090804","<span class=stimul>cheval</span>","0","Correct"
"","html-button-response","33","23677","0.0-1.0-0.32","y122temxxx","481.1999999983527","<span class=stimul>vrai</span>","0","Correct"
"","html-button-response","34","24178","0.0-1.0-0.33","y122temxxx","497.1999999979744","<span class=stimul>ligne</span>","0","Correct"
"","html-button-response","35","24729","0.0-1.0-0.34","y122temxxx","546.5000000003783","<span class=stimul>porte</span>","0","Correct"
"","html-button-response","36","25173","0.0-1.0-0.35","y122temxxx","439.90000000121654","<span class=stimul>autre</span>","0","Correct"
"","html-button-response","37","25516","0.0-1.0-0.36","y122temxxx","339.4000000007509","<span class=stimul>loup</span>","0","Correct"
"","html-button-response","38","25829","0.0-1.0-0.37","y122temxxx","309.40000000191503","<span class=stimul>soir</span>","0","Correct"
"","html-button-response","39","26092","0.0-1.0-0.38","y122temxxx","258.79999999961","<span class=stimul>page</span>","0","Correct"
"","html-button-response","40","26418","0.0-1.0-0.39","y122temxxx","322.1000000012282","<span class=stimul>raisin</span>","0","Correct"
"","html-button-response","41","26789","0.0-1.0-0.40","y122temxxx","366.8999999972584","<span class=stimul>car</span>","0","Correct"
"","html-button-response","42","27093","0.0-1.0-0.41","y122temxxx","300.20000000149594","<span class=stimul>sucre</span>","0","Correct"
"","html-button-response","43","27366","0.0-1.0-0.42","y122temxxx","268.7000000005355","<span class=stimul>chat</span>","0","Correct"
"","html-button-response","44","27701","0.0-1.0-0.43","y122temxxx","331.9000000010419","<span class=stimul>matin</span>","0","Correct"
"","html-button-response","45","28235","0.0-1.0-0.44","y122temxxx","529.1999999972177","<span class=stimul>trésor</span>","0","Correct"
"","html-button-response","46","28736","0.0-1.0-0.45","y122temxxx","496.90000000191503","<span class=stimul>soixante</span>","0","Correct"
"","html-button-response","47","29120","0.0-1.0-0.46","y122temxxx","380.00000000101863","<span class=stimul>lundi</span>","0","Correct"
"","html-button-response","48","29376","0.0-1.0-0.47","y122temxxx","252.5999999998021","<span class=stimul>rose</span>","0","Correct"
"","html-button-response","49","29705","0.0-1.0-0.48","y122temxxx","324.49999999880674","<span class=stimul>visage</span>","0","Correct"
"","html-button-response","50","29999","0.0-1.0-0.49","y122temxxx","290.1000000019849","<span class=stimul>six</span>","0","Correct"
"","html-button-response","51","30403","0.0-1.0-0.50","y122temxxx","400.60000000084983","<span class=stimul>ciseau</span>","0","Correct"
"","html-button-response","52","30722","0.0-1.0-0.51","y122temxxx","314.699999998993","<span class=stimul>août</span>","0","Correct"
"","html-button-response","53","31017","0.0-1.0-0.52","y122temxxx","290.99999999743886","<span class=stimul>pays</span>","0","Correct"
"","html-button-response","54","31289","0.0-1.0-0.53","y122temxxx","268.10000000114087","<span class=stimul>balai</span>","0","Correct"
"","html-button-response","55","31543","0.0-1.0-0.54","y122temxxx","249.5999999991909","<span class=stimul>fille</span>","0","Correct"
"","html-button-response","56","31848","0.0-1.0-0.55","y122temxxx","301.69999999998254","<span class=stimul>sept</span>","0","Correct"
"","html-button-response","57","32104","0.0-1.0-0.56","y122temxxx","251.8999999992957","<span class=stimul>lourd</span>","0","Correct"
"","html-button-response","58","32440","0.0-1.0-0.57","y122temxxx","332.300000001851","<span class=stimul>femme</span>","0","Correct"
"","html-button-response","59","32761","0.0-1.0-0.58","y122temxxx","316.8000000005122","<span class=stimul>garage</span>","0","Correct"
"","html-button-response","60","33170","0.0-1.0-0.59","y122temxxx","404.8999999977241","<span class=stimul>hibou</span>","0","Correct"
"true","fullscreen","61","34174","0.0-2.0","y122temxxx","","","",""
