[{"success":true,"trial_type":"fullscreen","trial_index":0,"time_elapsed":22931,"internal_node_id":"0.0-0.0","ID":"e0hbk8lu4p"},{"results":[{"id":"train-images","shape":"10","outlier_type":"NA","choice":1,"outlierPosition":1,"success":true,"majorityOfMostRegularShapes":"NA","rt":8032.5999999999985,"rot1":15,"rot2":-25,"rot3":-5,"rot4":5,"rot5":25,"rot6":-15,"dil1":1.125,"dil2":0.875,"dil3":0.925,"dil4":0.975,"dil5":1.075,"dil6":1.025,"rots":[15,-25,-5,5,25,-15],"dils":[1.125,0.875,0.925,0.975,1.075,1.025],"loop_number":1,"everTouched":null},{"id":"train-images","shape":"6","outlier_type":"NA","choice":4,"outlierPosition":4,"success":true,"majorityOfMostRegularShapes":"NA","rt":4479.600000000006,"rot1":25,"rot2":-15,"rot3":-5,"rot4":15,"rot5":5,"rot6":-25,"dil1":0.925,"dil2":0.975,"dil3":1.025,"dil4":0.875,"dil5":1.125,"dil6":1.075,"rots":[25,-15,-5,15,5,-25],"dils":[0.925,0.975,1.025,0.875,1.125,1.075],"loop_number":1,"everTouched":null},{"id":"train-images","shape":"1","outlier_type":"NA","choice":3,"outlierPosition":3,"success":true,"majorityOfMostRegularShapes":"NA","rt":1223.8999999999505,"rot1":-15,"rot2":-5,"rot3":5,"rot4":15,"rot5":-25,"rot6":25,"dil1":1.125,"dil2":0.975,"dil3":0.875,"dil4":1.025,"dil5":1.075,"dil6":0.925,"rots":[-15,-5,5,15,-25,25],"dils":[1.125,0.975,0.875,1.025,1.075,0.925],"loop_number":1,"everTouched":null},{"id":"train-images","shape":"4","outlier_type":"NA","choice":1,"outlierPosition":1,"success":true,"majorityOfMostRegularShapes":"NA","rt":1844.5000000000437,"rot1":-25,"rot2":25,"rot3":-15,"rot4":5,"rot5":-5,"rot6":15,"dil1":0.925,"dil2":1.075,"dil3":0.975,"dil4":1.125,"dil5":0.875,"dil6":1.025,"rots":[-25,25,-15,5,-5,15],"dils":[0.925,1.075,0.975,1.125,0.875,1.025],"loop_number":1,"everTouched":null},{"id":"train-images","shape":"8","outlier_type":"NA","choice":0,"outlierPosition":0,"success":true,"majorityOfMostRegularShapes":"NA","rt":1419.8999999999942,"rot1":-5,"rot2":5,"rot3":-25,"rot4":-15,"rot5":15,"rot6":25,"dil1":1.075,"dil2":0.875,"dil3":1.025,"dil4":0.925,"dil5":0.975,"dil6":1.125,"rots":[-5,5,-25,-15,15,25],"dils":[1.075,0.875,1.025,0.925,0.975,1.125],"loop_number":1,"everTouched":null},{"id":"train-images","shape":"2","outlier_type":"NA","choice":4,"outlierPosition":4,"success":true,"majorityOfMostRegularShapes":"NA","rt":1015.4999999999709,"rot1":-5,"rot2":5,"rot3":-15,"rot4":-25,"rot5":15,"rot6":25,"dil1":1.125,"dil2":0.875,"dil3":0.975,"dil4":1.075,"dil5":0.925,"dil6":1.025,"rots":[-5,5,-15,-25,15,25],"dils":[1.125,0.875,0.975,1.075,0.925,1.025],"loop_number":1,"everTouched":null},{"id":"train-images","shape":"3","outlier_type":"NA","choice":0,"outlierPosition":0,"success":true,"majorityOfMostRegularShapes":"NA","rt":1965.1999999999825,"rot1":5,"rot2":15,"rot3":-5,"rot4":-15,"rot5":25,"rot6":-25,"dil1":1.075,"dil2":0.875,"dil3":1.025,"dil4":1.125,"dil5":0.925,"dil6":0.975,"rots":[5,15,-5,-15,25,-25],"dils":[1.075,0.875,1.025,1.125,0.925,0.975],"loop_number":1,"everTouched":null},{"id":"train-images","shape":"5","outlier_type":"NA","choice":3,"outlierPosition":3,"success":true,"majorityOfMostRegularShapes":"NA","rt":1213.2000000000262,"rot1":15,"rot2":5,"rot3":-5,"rot4":25,"rot5":-25,"rot6":-15,"dil1":1.025,"dil2":0.875,"dil3":1.125,"dil4":0.925,"dil5":0.975,"dil6":1.075,"rots":[15,5,-5,25,-25,-15],"dils":[1.025,0.875,1.125,0.925,0.975,1.075],"loop_number":1,"everTouched":null},{"id":"train-images","shape":"9","outlier_type":"NA","choice":3,"outlierPosition":3,"success":true,"majorityOfMostRegularShapes":"NA","rt":1040.7000000000116,"rot1":-25,"rot2":-15,"rot3":15,"rot4":-5,"rot5":5,"rot6":25,"dil1":0.975,"dil2":0.875,"dil3":0.925,"dil4":1.025,"dil5":1.075,"dil6":1.125,"rots":[-25,-15,15,-5,5,25],"dils":[0.975,0.875,0.925,1.025,1.075,1.125],"loop_number":1,"everTouched":null},{"id":"train-images","shape":"7","outlier_type":"NA","choice":4,"outlierPosition":4,"success":true,"majorityOfMostRegularShapes":"NA","rt":964.4000000000815,"rot1":25,"rot2":5,"rot3":-25,"rot4":-5,"rot5":15,"rot6":-15,"dil1":1.025,"dil2":0.925,"dil3":0.875,"dil4":0.975,"dil5":1.125,"dil6":1.075,"rots":[25,5,-25,-5,15,-15],"dils":[1.025,0.925,0.875,0.975,1.125,1.075],"loop_number":1,"everTouched":null}],"trial_type":"oddball-grid-image","trial_index":1,"time_elapsed":92627,"internal_node_id":"0.0-1.0","ID":"e0hbk8lu4p"},{"results":[{"id":"train","shape":null,"outlier_type":null,"choice":0,"outlierPosition":0,"success":true,"majorityOfMostRegularShapes":null,"rt":1007.3000000000902,"rot1":15,"rot2":-25,"rot3":-5,"rot4":5,"rot5":25,"rot6":-15,"dil1":0.875,"dil2":1.025,"dil3":0.925,"dil4":0.975,"dil5":1.075,"dil6":1.125,"rots":[15,-25,-5,5,25,-15],"dils":[0.875,1.025,0.925,0.975,1.075,1.125],"loop_number":1,"everTouched":null},{"id":"train","shape":null,"outlier_type":null,"choice":1,"outlierPosition":1,"success":true,"majorityOfMostRegularShapes":null,"rt":1056.899999999936,"rot1":-5,"rot2":15,"rot3":-15,"rot4":-25,"rot5":25,"rot6":5,"dil1":0.975,"dil2":0.875,"dil3":1.075,"dil4":1.025,"dil5":1.125,"dil6":0.925,"rots":[-5,15,-15,-25,25,5],"dils":[0.975,0.875,1.075,1.025,1.125,0.925],"loop_number":1,"everTouched":null},{"id":"train","shape":null,"outlier_type":null,"choice":1,"outlierPosition":1,"success":true,"majorityOfMostRegularShapes":null,"rt":917.4000000000524,"rot1":-5,"rot2":-15,"rot3":5,"rot4":25,"rot5":15,"rot6":-25,"dil1":1.075,"dil2":0.875,"dil3":0.925,"dil4":1.125,"dil5":1.025,"dil6":0.975,"rots":[-5,-15,5,25,15,-25],"dils":[1.075,0.875,0.925,1.125,1.025,0.975],"loop_number":1,"everTouched":null},{"id":"train","shape":null,"outlier_type":null,"choice":1,"outlierPosition":1,"success":true,"majorityOfMostRegularShapes":null,"rt":917.200000000099,"rot1":25,"rot2":-15,"rot3":-25,"rot4":15,"rot5":-5,"rot6":5,"dil1":0.925,"dil2":1.075,"dil3":1.125,"dil4":0.975,"dil5":1.025,"dil6":0.875,"rots":[25,-15,-25,15,-5,5],"dils":[0.925,1.075,1.125,0.975,1.025,0.875],"loop_number":1,"everTouched":null},{"id":"train","shape":null,"outlier_type":null,"choice":4,"outlierPosition":4,"success":true,"majorityOfMostRegularShapes":null,"rt":1129.9000000000233,"rot1":5,"rot2":-5,"rot3":15,"rot4":-25,"rot5":-15,"rot6":25,"dil1":1.125,"dil2":0.975,"dil3":1.025,"dil4":1.075,"dil5":0.925,"dil6":0.875,"rots":[5,-5,15,-25,-15,25],"dils":[1.125,0.975,1.025,1.075,0.925,0.875],"loop_number":1,"everTouched":null},{"id":"train","shape":null,"outlier_type":null,"choice":2,"outlierPosition":2,"success":true,"majorityOfMostRegularShapes":null,"rt":1918.6999999999389,"rot1":15,"rot2":5,"rot3":-25,"rot4":25,"rot5":-5,"rot6":-15,"dil1":1.075,"dil2":1.025,"dil3":0.975,"dil4":1.125,"dil5":0.925,"dil6":0.875,"rots":[15,5,-25,25,-5,-15],"dils":[1.075,1.025,0.975,1.125,0.925,0.875],"loop_number":1,"everTouched":null}],"desiredDistance":0.3,"trial_type":"oddball-grid-easy","trial_index":2,"time_elapsed":108973,"internal_node_id":"0.0-2.0","ID":"e0hbk8lu4p"},{"results":[{"id":"test","shape":"kite","outlier_type":0,"choice":5,"outlierPosition":5,"success":true,"majorityOfMostRegularShapes":true,"rt":2023.2999999999447,"rot1":25,"rot2":-25,"rot3":-5,"rot4":-15,"rot5":15,"rot6":5,"dil1":1.075,"dil2":1.025,"dil3":0.925,"dil4":0.975,"dil5":1.125,"dil6":0.875,"rots":[25,-25,-5,-15,15,5],"dils":[1.075,1.025,0.925,0.975,1.125,0.875],"loop_number":"NA","everTouched":null},{"id":"test","shape":"parallelogram","outlier_type":2,"choice":1,"outlierPosition":1,"success":true,"majorityOfMostRegularShapes":true,"rt":2859.2999999999593,"rot1":-15,"rot2":-25,"rot3":25,"rot4":-5,"rot5":5,"rot6":15,"dil1":1.075,"dil2":0.975,"dil3":0.925,"dil4":1.125,"dil5":1.025,"dil6":0.875,"rots":[-15,-25,25,-5,5,15],"dils":[1.075,0.975,0.925,1.125,1.025,0.875],"loop_number":"NA","everTouched":null},{"id":"test","shape":"square","outlier_type":0,"choice":5,"outlierPosition":5,"success":true,"majorityOfMostRegularShapes":true,"rt":1697.1999999999534,"rot1":-5,"rot2":25,"rot3":5,"rot4":-25,"rot5":-15,"rot6":15,"dil1":1.075,"dil2":0.875,"dil3":0.925,"dil4":1.125,"dil5":0.975,"dil6":1.025,"rots":[-5,25,5,-25,-15,15],"dils":[1.075,0.875,0.925,1.125,0.975,1.025],"loop_number":"NA","everTouched":null},{"id":"test","shape":"isoTrapezoid","outlier_type":3,"choice":2,"outlierPosition":2,"success":true,"majorityOfMostRegularShapes":true,"rt":2162.399999999936,"rot1":-15,"rot2":25,"rot3":5,"rot4":-25,"rot5":15,"rot6":-5,"dil1":1.025,"dil2":1.125,"dil3":1.075,"dil4":0.925,"dil5":0.875,"dil6":0.975,"rots":[-15,25,5,-25,15,-5],"dils":[1.025,1.125,1.075,0.925,0.875,0.975],"loop_number":"NA","everTouched":null},{"id":"test","shape":"hinge","outlier_type":0,"choice":5,"outlierPosition":2,"success":false,"majorityOfMostRegularShapes":true,"rt":3241.299999999901,"rot1":-5,"rot2":-25,"rot3":15,"rot4":5,"rot5":-15,"rot6":25,"dil1":1.025,"dil2":0.875,"dil3":1.125,"dil4":1.075,"dil5":0.925,"dil6":0.975,"rots":[-5,-25,15,5,-15,25],"dils":[1.025,0.875,1.125,1.075,0.925,0.975],"loop_number":"NA","everTouched":null},{"id":"test","shape":"parallelogram","outlier_type":1,"choice":4,"outlierPosition":4,"success":true,"majorityOfMostRegularShapes":true,"rt":2421.900000000038,"rot1":-15,"rot2":25,"rot3":5,"rot4":15,"rot5":-5,"rot6":-25,"dil1":1.075,"dil2":0.875,"dil3":0.925,"dil4":0.975,"dil5":1.125,"dil6":1.025,"rots":[-15,25,5,15,-5,-25],"dils":[1.075,0.875,0.925,0.975,1.125,1.025],"loop_number":"NA","everTouched":null},{"id":"test","shape":"rustedHinge","outlier_type":0,"choice":4,"outlierPosition":4,"success":true,"majorityOfMostRegularShapes":true,"rt":5266.100000000035,"rot1":-25,"rot2":5,"rot3":25,"rot4":15,"rot5":-5,"rot6":-15,"dil1":1.025,"dil2":1.075,"dil3":1.125,"dil4":0.975,"dil5":0.925,"dil6":0.875,"rots":[-25,5,25,15,-5,-15],"dils":[1.025,1.075,1.125,0.975,0.925,0.875],"loop_number":"NA","everTouched":null},{"id":"test","shape":"losange","outlier_type":1,"choice":0,"outlierPosition":0,"success":true,"majorityOfMostRegularShapes":true,"rt":2030.7999999999884,"rot1":-15,"rot2":15,"rot3":-25,"rot4":5,"rot5":-5,"rot6":25,"dil1":0.925,"dil2":1.025,"dil3":0.875,"dil4":1.125,"dil5":1.075,"dil6":0.975,"rots":[-15,15,-25,5,-5,25],"dils":[0.925,1.025,0.875,1.125,1.075,0.975],"loop_number":"NA","everTouched":null},{"id":"test","shape":"kite","outlier_type":2,"choice":1,"outlierPosition":1,"success":true,"majorityOfMostRegularShapes":true,"rt":2404.3000000000466,"rot1":15,"rot2":25,"rot3":-5,"rot4":5,"rot5":-25,"rot6":-15,"dil1":1.075,"dil2":1.025,"dil3":0.875,"dil4":0.975,"dil5":0.925,"dil6":1.125,"rots":[15,25,-5,5,-25,-15],"dils":[1.075,1.025,0.875,0.975,0.925,1.125],"loop_number":"NA","everTouched":null},{"id":"test","shape":"losange","outlier_type":3,"choice":1,"outlierPosition":1,"success":true,"majorityOfMostRegularShapes":true,"rt":1459.0000000000582,"rot1":15,"rot2":-5,"rot3":-15,"rot4":25,"rot5":5,"rot6":-25,"dil1":0.975,"dil2":1.075,"dil3":1.125,"dil4":1.025,"dil5":0.925,"dil6":0.875,"rots":[15,-5,-15,25,5,-25],"dils":[0.975,1.075,1.125,1.025,0.925,0.875],"loop_number":"NA","everTouched":null},{"id":"test","shape":"rectangle","outlier_type":1,"choice":3,"outlierPosition":3,"success":true,"majorityOfMostRegularShapes":true,"rt":1092.2000000000407,"rot1":-15,"rot2":-25,"rot3":15,"rot4":25,"rot5":-5,"rot6":5,"dil1":1.075,"dil2":0.875,"dil3":0.975,"dil4":1.125,"dil5":1.025,"dil6":0.925,"rots":[-15,-25,15,25,-5,5],"dils":[1.075,0.875,0.975,1.125,1.025,0.925],"loop_number":"NA","everTouched":null},{"id":"test","shape":"square","outlier_type":2,"choice":0,"outlierPosition":0,"success":true,"majorityOfMostRegularShapes":true,"rt":1078.0999999999476,"rot1":-15,"rot2":-25,"rot3":15,"rot4":5,"rot5":25,"rot6":-5,"dil1":0.975,"dil2":0.875,"dil3":0.925,"dil4":1.025,"dil5":1.075,"dil6":1.125,"rots":[-15,-25,15,5,25,-5],"dils":[0.975,0.875,0.925,1.025,1.075,1.125],"loop_number":"NA","everTouched":null},{"id":"test","shape":"kite","outlier_type":3,"choice":0,"outlierPosition":0,"success":true,"majorityOfMostRegularShapes":true,"rt":1581.399999999936,"rot1":5,"rot2":-15,"rot3":-5,"rot4":15,"rot5":-25,"rot6":25,"dil1":1.025,"dil2":1.075,"dil3":1.125,"dil4":0.875,"dil5":0.925,"dil6":0.975,"rots":[5,-15,-5,15,-25,25],"dils":[1.025,1.075,1.125,0.875,0.925,0.975],"loop_number":"NA","everTouched":null},{"id":"test","shape":"losange","outlier_type":2,"choice":2,"outlierPosition":2,"success":true,"majorityOfMostRegularShapes":true,"rt":2343.800000000105,"rot1":5,"rot2":15,"rot3":-25,"rot4":-5,"rot5":-15,"rot6":25,"dil1":0.975,"dil2":1.075,"dil3":1.025,"dil4":0.875,"dil5":0.925,"dil6":1.125,"rots":[5,15,-25,-5,-15,25],"dils":[0.975,1.075,1.025,0.875,0.925,1.125],"loop_number":"NA","everTouched":null},{"id":"test","shape":"rectangle","outlier_type":3,"choice":5,"outlierPosition":5,"success":true,"majorityOfMostRegularShapes":true,"rt":1072,"rot1":15,"rot2":25,"rot3":-5,"rot4":5,"rot5":-25,"rot6":-15,"dil1":0.875,"dil2":1.075,"dil3":0.975,"dil4":0.925,"dil5":1.025,"dil6":1.125,"rots":[15,25,-5,5,-25,-15],"dils":[0.875,1.075,0.975,0.925,1.025,1.125],"loop_number":"NA","everTouched":null},{"id":"test","shape":"kite","outlier_type":1,"choice":0,"outlierPosition":0,"success":true,"majorityOfMostRegularShapes":true,"rt":2298.4000000000233,"rot1":25,"rot2":-25,"rot3":15,"rot4":-5,"rot5":5,"rot6":-15,"dil1":0.975,"dil2":1.125,"dil3":1.025,"dil4":0.875,"dil5":1.075,"dil6":0.925,"rots":[25,-25,15,-5,5,-15],"dils":[0.975,1.125,1.025,0.875,1.075,0.925],"loop_number":"NA","everTouched":null},{"id":"test","shape":"trapezoid","outlier_type":0,"choice":0,"outlierPosition":4,"success":false,"majorityOfMostRegularShapes":true,"rt":1577.1999999999534,"rot1":-25,"rot2":15,"rot3":5,"rot4":-15,"rot5":25,"rot6":-5,"dil1":0.875,"dil2":1.075,"dil3":0.925,"dil4":1.025,"dil5":1.125,"dil6":0.975,"rots":[-25,15,5,-15,25,-5],"dils":[0.875,1.075,0.925,1.025,1.125,0.975],"loop_number":"NA","everTouched":null},{"id":"test","shape":"rightKite","outlier_type":3,"choice":5,"outlierPosition":5,"success":true,"majorityOfMostRegularShapes":true,"rt":2912.2999999999593,"rot1":25,"rot2":-15,"rot3":-5,"rot4":15,"rot5":5,"rot6":-25,"dil1":1.025,"dil2":0.975,"dil3":1.125,"dil4":1.075,"dil5":0.925,"dil6":0.875,"rots":[25,-15,-5,15,5,-25],"dils":[1.025,0.975,1.125,1.075,0.925,0.875],"loop_number":"NA","everTouched":null},{"id":"test","shape":"parallelogram","outlier_type":0,"choice":0,"outlierPosition":0,"success":true,"majorityOfMostRegularShapes":true,"rt":3281.2000000000116,"rot1":15,"rot2":-5,"rot3":5,"rot4":-15,"rot5":-25,"rot6":25,"dil1":1.025,"dil2":1.075,"dil3":0.925,"dil4":1.125,"dil5":0.875,"dil6":0.975,"rots":[15,-5,5,-15,-25,25],"dils":[1.025,1.075,0.925,1.125,0.875,0.975],"loop_number":"NA","everTouched":null},{"id":"test","shape":"trapezoid","outlier_type":1,"choice":1,"outlierPosition":1,"success":true,"majorityOfMostRegularShapes":true,"rt":4010.999999999942,"rot1":15,"rot2":-15,"rot3":-5,"rot4":25,"rot5":-25,"rot6":5,"dil1":1.025,"dil2":1.075,"dil3":1.125,"dil4":0.975,"dil5":0.875,"dil6":0.925,"rots":[15,-15,-5,25,-25,5],"dils":[1.025,1.075,1.125,0.975,0.875,0.925],"loop_number":"NA","everTouched":null},{"id":"test","shape":"losange","outlier_type":0,"choice":3,"outlierPosition":3,"success":true,"majorityOfMostRegularShapes":true,"rt":6855.5,"rot1":25,"rot2":-25,"rot3":5,"rot4":-5,"rot5":-15,"rot6":15,"dil1":0.875,"dil2":1.025,"dil3":0.975,"dil4":1.075,"dil5":0.925,"dil6":1.125,"rots":[25,-25,5,-5,-15,15],"dils":[0.875,1.025,0.975,1.075,0.925,1.125],"loop_number":"NA","everTouched":null},{"id":"test","shape":"rightKite","outlier_type":1,"choice":0,"outlierPosition":0,"success":true,"majorityOfMostRegularShapes":true,"rt":5234.1999999999825,"rot1":-25,"rot2":-5,"rot3":15,"rot4":5,"rot5":-15,"rot6":25,"dil1":1.025,"dil2":0.875,"dil3":1.075,"dil4":0.975,"dil5":1.125,"dil6":0.925,"rots":[-25,-5,15,5,-15,25],"dils":[1.025,0.875,1.075,0.975,1.125,0.925],"loop_number":"NA","everTouched":null},{"id":"test","shape":"trapezoid","outlier_type":3,"choice":2,"outlierPosition":1,"success":false,"majorityOfMostRegularShapes":true,"rt":1389.7000000000698,"rot1":15,"rot2":-15,"rot3":25,"rot4":-5,"rot5":5,"rot6":-25,"dil1":0.925,"dil2":0.875,"dil3":1.125,"dil4":1.075,"dil5":1.025,"dil6":0.975,"rots":[15,-15,25,-5,5,-25],"dils":[0.925,0.875,1.125,1.075,1.025,0.975],"loop_number":"NA","everTouched":null},{"id":"test","shape":"isoTrapezoid","outlier_type":2,"choice":1,"outlierPosition":1,"success":true,"majorityOfMostRegularShapes":true,"rt":3005.5999999999476,"rot1":25,"rot2":-15,"rot3":5,"rot4":15,"rot5":-5,"rot6":-25,"dil1":0.925,"dil2":1.075,"dil3":0.875,"dil4":1.025,"dil5":1.125,"dil6":0.975,"rots":[25,-15,5,15,-5,-25],"dils":[0.925,1.075,0.875,1.025,1.125,0.975],"loop_number":"NA","everTouched":null},{"id":"test","shape":"random","outlier_type":1,"choice":1,"outlierPosition":1,"success":true,"majorityOfMostRegularShapes":true,"rt":11783.099999999977,"rot1":-15,"rot2":-5,"rot3":25,"rot4":5,"rot5":15,"rot6":-25,"dil1":0.925,"dil2":0.975,"dil3":1.125,"dil4":0.875,"dil5":1.025,"dil6":1.075,"rots":[-15,-5,25,5,15,-25],"dils":[0.925,0.975,1.125,0.875,1.025,1.075],"loop_number":"NA","everTouched":null},{"id":"test","shape":"rightKite","outlier_type":2,"choice":5,"outlierPosition":5,"success":true,"majorityOfMostRegularShapes":true,"rt":4163.20000000007,"rot1":5,"rot2":-25,"rot3":15,"rot4":-5,"rot5":-15,"rot6":25,"dil1":0.925,"dil2":1.075,"dil3":1.125,"dil4":0.975,"dil5":0.875,"dil6":1.025,"rots":[5,-25,15,-5,-15,25],"dils":[0.925,1.075,1.125,0.975,0.875,1.025],"loop_number":"NA","everTouched":null},{"id":"test","shape":"isoTrapezoid","outlier_type":0,"choice":1,"outlierPosition":1,"success":true,"majorityOfMostRegularShapes":true,"rt":6813.199999999924,"rot1":25,"rot2":-25,"rot3":-5,"rot4":-15,"rot5":5,"rot6":15,"dil1":0.875,"dil2":0.925,"dil3":1.125,"dil4":0.975,"dil5":1.075,"dil6":1.025,"rots":[25,-25,-5,-15,5,15],"dils":[0.875,0.925,1.125,0.975,1.075,1.025],"loop_number":"NA","everTouched":null},{"id":"test","shape":"rectangle","outlier_type":2,"choice":5,"outlierPosition":5,"success":true,"majorityOfMostRegularShapes":true,"rt":1859.700000000099,"rot1":15,"rot2":-5,"rot3":25,"rot4":-25,"rot5":-15,"rot6":5,"dil1":1.075,"dil2":1.125,"dil3":0.975,"dil4":0.875,"dil5":1.025,"dil6":0.925,"rots":[15,-5,25,-25,-15,5],"dils":[1.075,1.125,0.975,0.875,1.025,0.925],"loop_number":"NA","everTouched":null},{"id":"test","shape":"parallelogram","outlier_type":3,"choice":5,"outlierPosition":5,"success":true,"majorityOfMostRegularShapes":true,"rt":1239.4999999998836,"rot1":-5,"rot2":5,"rot3":-25,"rot4":15,"rot5":-15,"rot6":25,"dil1":0.925,"dil2":1.075,"dil3":1.125,"dil4":0.975,"dil5":0.875,"dil6":1.025,"rots":[-5,5,-25,15,-15,25],"dils":[0.925,1.075,1.125,0.975,0.875,1.025],"loop_number":"NA","everTouched":null},{"id":"test","shape":"rightKite","outlier_type":0,"choice":3,"outlierPosition":4,"success":false,"majorityOfMostRegularShapes":true,"rt":2999.3000000000757,"rot1":-25,"rot2":25,"rot3":15,"rot4":5,"rot5":-5,"rot6":-15,"dil1":1.025,"dil2":1.075,"dil3":1.125,"dil4":0.925,"dil5":0.975,"dil6":0.875,"rots":[-25,25,15,5,-5,-15],"dils":[1.025,1.075,1.125,0.925,0.975,0.875],"loop_number":"NA","everTouched":null},{"id":"test","shape":"rustedHinge","outlier_type":3,"choice":2,"outlierPosition":5,"success":false,"majorityOfMostRegularShapes":true,"rt":3693.399999999994,"rot1":-15,"rot2":15,"rot3":25,"rot4":-25,"rot5":5,"rot6":-5,"dil1":1.125,"dil2":0.925,"dil3":0.975,"dil4":0.875,"dil5":1.025,"dil6":1.075,"rots":[-15,15,25,-25,5,-5],"dils":[1.125,0.925,0.975,0.875,1.025,1.075],"loop_number":"NA","everTouched":null},{"id":"test","shape":"trapezoid","outlier_type":2,"choice":0,"outlierPosition":0,"success":true,"majorityOfMostRegularShapes":true,"rt":6246.999999999971,"rot1":25,"rot2":15,"rot3":-25,"rot4":-15,"rot5":-5,"rot6":5,"dil1":0.975,"dil2":1.125,"dil3":1.025,"dil4":0.875,"dil5":0.925,"dil6":1.075,"rots":[25,15,-25,-15,-5,5],"dils":[0.975,1.125,1.025,0.875,0.925,1.075],"loop_number":"NA","everTouched":null},{"id":"test","shape":"rustedHinge","outlier_type":1,"choice":3,"outlierPosition":3,"success":true,"majorityOfMostRegularShapes":true,"rt":3932.70000000007,"rot1":-5,"rot2":5,"rot3":-25,"rot4":-15,"rot5":25,"rot6":15,"dil1":1.025,"dil2":0.875,"dil3":0.975,"dil4":1.075,"dil5":1.125,"dil6":0.925,"rots":[-5,5,-25,-15,25,15],"dils":[1.025,0.875,0.975,1.075,1.125,0.925],"loop_number":"NA","everTouched":null},{"id":"test","shape":"random","outlier_type":3,"choice":2,"outlierPosition":3,"success":false,"majorityOfMostRegularShapes":true,"rt":6123.100000000035,"rot1":5,"rot2":-5,"rot3":-15,"rot4":-25,"rot5":25,"rot6":15,"dil1":0.925,"dil2":0.975,"dil3":1.125,"dil4":0.875,"dil5":1.075,"dil6":1.025,"rots":[5,-5,-15,-25,25,15],"dils":[0.925,0.975,1.125,0.875,1.075,1.025],"loop_number":"NA","everTouched":null},{"id":"test","shape":"square","outlier_type":1,"choice":5,"outlierPosition":5,"success":true,"majorityOfMostRegularShapes":true,"rt":1427.3000000001048,"rot1":25,"rot2":5,"rot3":-25,"rot4":15,"rot5":-5,"rot6":-15,"dil1":1.025,"dil2":0.975,"dil3":1.075,"dil4":0.925,"dil5":0.875,"dil6":1.125,"rots":[25,5,-25,15,-5,-15],"dils":[1.025,0.975,1.075,0.925,0.875,1.125],"loop_number":"NA","everTouched":null},{"id":"test","shape":"random","outlier_type":0,"choice":5,"outlierPosition":5,"success":true,"majorityOfMostRegularShapes":true,"rt":7383.800000000047,"rot1":25,"rot2":-5,"rot3":-25,"rot4":-15,"rot5":5,"rot6":15,"dil1":1.025,"dil2":0.875,"dil3":1.075,"dil4":1.125,"dil5":0.975,"dil6":0.925,"rots":[25,-5,-25,-15,5,15],"dils":[1.025,0.875,1.075,1.125,0.975,0.925],"loop_number":"NA","everTouched":null},{"id":"test","shape":"hinge","outlier_type":2,"choice":0,"outlierPosition":0,"success":true,"majorityOfMostRegularShapes":true,"rt":3663.9000000000233,"rot1":-25,"rot2":25,"rot3":-15,"rot4":15,"rot5":-5,"rot6":5,"dil1":0.875,"dil2":1.075,"dil3":0.975,"dil4":0.925,"dil5":1.125,"dil6":1.025,"rots":[-25,25,-15,15,-5,5],"dils":[0.875,1.075,0.975,0.925,1.125,1.025],"loop_number":"NA","everTouched":null},{"id":"test","shape":"square","outlier_type":3,"choice":4,"outlierPosition":4,"success":true,"majorityOfMostRegularShapes":true,"rt":1841.1999999999534,"rot1":-5,"rot2":15,"rot3":25,"rot4":-15,"rot5":-25,"rot6":5,"dil1":1.125,"dil2":0.925,"dil3":0.975,"dil4":0.875,"dil5":1.025,"dil6":1.075,"rots":[-5,15,25,-15,-25,5],"dils":[1.125,0.925,0.975,0.875,1.025,1.075],"loop_number":"NA","everTouched":null},{"id":"test","shape":"rustedHinge","outlier_type":2,"choice":3,"outlierPosition":3,"success":true,"majorityOfMostRegularShapes":true,"rt":4330.900000000023,"rot1":-15,"rot2":5,"rot3":-25,"rot4":-5,"rot5":15,"rot6":25,"dil1":1.125,"dil2":1.075,"dil3":0.925,"dil4":0.975,"dil5":0.875,"dil6":1.025,"rots":[-15,5,-25,-5,15,25],"dils":[1.125,1.075,0.925,0.975,0.875,1.025],"loop_number":"NA","everTouched":null},{"id":"test","shape":"isoTrapezoid","outlier_type":1,"choice":4,"outlierPosition":4,"success":true,"majorityOfMostRegularShapes":true,"rt":2875.7999999999884,"rot1":5,"rot2":-25,"rot3":25,"rot4":-5,"rot5":-15,"rot6":15,"dil1":1.075,"dil2":1.125,"dil3":1.025,"dil4":0.925,"dil5":0.875,"dil6":0.975,"rots":[5,-25,25,-5,-15,15],"dils":[1.075,1.125,1.025,0.925,0.875,0.975],"loop_number":"NA","everTouched":null},{"id":"test","shape":"hinge","outlier_type":3,"choice":2,"outlierPosition":2,"success":true,"majorityOfMostRegularShapes":true,"rt":3938.3000000000466,"rot1":-5,"rot2":-15,"rot3":5,"rot4":15,"rot5":25,"rot6":-25,"dil1":1.075,"dil2":0.975,"dil3":1.025,"dil4":1.125,"dil5":0.875,"dil6":0.925,"rots":[-5,-15,5,15,25,-25],"dils":[1.075,0.975,1.025,1.125,0.875,0.925],"loop_number":"NA","everTouched":null},{"id":"test","shape":"random","outlier_type":2,"choice":2,"outlierPosition":2,"success":true,"majorityOfMostRegularShapes":true,"rt":2686.399999999965,"rot1":25,"rot2":-25,"rot3":5,"rot4":15,"rot5":-5,"rot6":-15,"dil1":1.025,"dil2":1.075,"dil3":0.875,"dil4":1.125,"dil5":0.925,"dil6":0.975,"rots":[25,-25,5,15,-5,-15],"dils":[1.025,1.075,0.875,1.125,0.925,0.975],"loop_number":"NA","everTouched":null},{"id":"test","shape":"rectangle","outlier_type":0,"choice":2,"outlierPosition":2,"success":true,"majorityOfMostRegularShapes":true,"rt":1281.899999999965,"rot1":15,"rot2":5,"rot3":-5,"rot4":-15,"rot5":-25,"rot6":25,"dil1":1.075,"dil2":1.025,"dil3":1.125,"dil4":0.975,"dil5":0.925,"dil6":0.875,"rots":[15,5,-5,-15,-25,25],"dils":[1.075,1.025,1.125,0.975,0.925,0.875],"loop_number":"NA","everTouched":null},{"id":"test","shape":"hinge","outlier_type":1,"choice":4,"outlierPosition":4,"success":true,"majorityOfMostRegularShapes":true,"rt":3415.499999999942,"rot1":25,"rot2":-15,"rot3":5,"rot4":-5,"rot5":15,"rot6":-25,"dil1":1.125,"dil2":0.925,"dil3":0.975,"dil4":1.075,"dil5":0.875,"dil6":1.025,"rots":[25,-15,5,-5,15,-25],"dils":[1.125,0.925,0.975,1.075,0.875,1.025],"loop_number":"NA","everTouched":null}],"desiredDistance":0.3,"trial_type":"oddball-grid","trial_index":3,"time_elapsed":318364,"internal_node_id":"0.0-3.0","ID":"e0hbk8lu4p"},{"success":true,"trial_type":"fullscreen","trial_index":4,"time_elapsed":321075,"internal_node_id":"0.0-4.0","ID":"e0hbk8lu4p"}]