[{"success":true,"trial_type":"fullscreen","trial_index":0,"time_elapsed":14579,"internal_node_id":"0.0-0.0","ID":"t1589n5lnd"},{"results":[{"id":"train-images","shape":"2","outlier_type":"NA","choice":5,"outlierPosition":5,"success":true,"majorityOfMostRegularShapes":"NA","rt":7476.09999999986,"rot1":-25,"rot2":5,"rot3":-5,"rot4":15,"rot5":25,"rot6":-15,"dil1":0.925,"dil2":0.875,"dil3":1.075,"dil4":0.975,"dil5":1.125,"dil6":1.025,"rots":[-25,5,-5,15,25,-15],"dils":[0.925,0.875,1.075,0.975,1.125,1.025],"loop_number":1,"everTouched":null},{"id":"train-images","shape":"10","outlier_type":"NA","choice":4,"outlierPosition":4,"success":true,"majorityOfMostRegularShapes":"NA","rt":1281.8000000006577,"rot1":-15,"rot2":-25,"rot3":-5,"rot4":15,"rot5":25,"rot6":5,"dil1":1.025,"dil2":1.125,"dil3":0.875,"dil4":0.925,"dil5":0.975,"dil6":1.075,"rots":[-15,-25,-5,15,25,5],"dils":[1.025,1.125,0.875,0.925,0.975,1.075],"loop_number":1,"everTouched":null},{"id":"train-images","shape":"9","outlier_type":"NA","choice":2,"outlierPosition":2,"success":true,"majorityOfMostRegularShapes":"NA","rt":1431.100000000697,"rot1":-15,"rot2":-5,"rot3":5,"rot4":-25,"rot5":15,"rot6":25,"dil1":0.925,"dil2":1.125,"dil3":1.025,"dil4":0.975,"dil5":0.875,"dil6":1.075,"rots":[-15,-5,5,-25,15,25],"dils":[0.925,1.125,1.025,0.975,0.875,1.075],"loop_number":1,"everTouched":null},{"id":"train-images","shape":"3","outlier_type":"NA","choice":5,"outlierPosition":5,"success":true,"majorityOfMostRegularShapes":"NA","rt":1224.00000000016,"rot1":15,"rot2":-15,"rot3":25,"rot4":5,"rot5":-25,"rot6":-5,"dil1":1.025,"dil2":0.875,"dil3":0.925,"dil4":1.125,"dil5":0.975,"dil6":1.075,"rots":[15,-15,25,5,-25,-5],"dils":[1.025,0.875,0.925,1.125,0.975,1.075],"loop_number":1,"everTouched":null},{"id":"train-images","shape":"4","outlier_type":"NA","choice":2,"outlierPosition":2,"success":true,"majorityOfMostRegularShapes":"NA","rt":1711.4000000001397,"rot1":-15,"rot2":25,"rot3":5,"rot4":-25,"rot5":15,"rot6":-5,"dil1":0.975,"dil2":1.075,"dil3":0.925,"dil4":1.025,"dil5":0.875,"dil6":1.125,"rots":[-15,25,5,-25,15,-5],"dils":[0.975,1.075,0.925,1.025,0.875,1.125],"loop_number":1,"everTouched":null},{"id":"train-images","shape":"5","outlier_type":"NA","choice":1,"outlierPosition":1,"success":true,"majorityOfMostRegularShapes":"NA","rt":1188.9000000001033,"rot1":15,"rot2":-15,"rot3":5,"rot4":-5,"rot5":25,"rot6":-25,"dil1":1.125,"dil2":1.025,"dil3":0.875,"dil4":0.975,"dil5":1.075,"dil6":0.925,"rots":[15,-15,5,-5,25,-25],"dils":[1.125,1.025,0.875,0.975,1.075,0.925],"loop_number":1,"everTouched":null},{"id":"train-images","shape":"1","outlier_type":"NA","choice":5,"outlierPosition":5,"success":true,"majorityOfMostRegularShapes":"NA","rt":1156.5999999993437,"rot1":-5,"rot2":25,"rot3":-15,"rot4":5,"rot5":-25,"rot6":15,"dil1":1.075,"dil2":1.125,"dil3":1.025,"dil4":0.925,"dil5":0.975,"dil6":0.875,"rots":[-5,25,-15,5,-25,15],"dils":[1.075,1.125,1.025,0.925,0.975,0.875],"loop_number":1,"everTouched":null},{"id":"train-images","shape":"7","outlier_type":"NA","choice":1,"outlierPosition":1,"success":true,"majorityOfMostRegularShapes":"NA","rt":1112.6000000003842,"rot1":15,"rot2":5,"rot3":25,"rot4":-5,"rot5":-15,"rot6":-25,"dil1":0.925,"dil2":0.875,"dil3":1.025,"dil4":0.975,"dil5":1.125,"dil6":1.075,"rots":[15,5,25,-5,-15,-25],"dils":[0.925,0.875,1.025,0.975,1.125,1.075],"loop_number":1,"everTouched":null},{"id":"train-images","shape":"8","outlier_type":"NA","choice":1,"outlierPosition":1,"success":true,"majorityOfMostRegularShapes":"NA","rt":1198.3000000000175,"rot1":5,"rot2":15,"rot3":-15,"rot4":25,"rot5":-5,"rot6":-25,"dil1":0.875,"dil2":0.925,"dil3":1.075,"dil4":1.025,"dil5":1.125,"dil6":0.975,"rots":[5,15,-15,25,-5,-25],"dils":[0.875,0.925,1.075,1.025,1.125,0.975],"loop_number":1,"everTouched":null},{"id":"train-images","shape":"6","outlier_type":"NA","choice":1,"outlierPosition":1,"success":true,"majorityOfMostRegularShapes":"NA","rt":1105.4000000003725,"rot1":-15,"rot2":-25,"rot3":15,"rot4":25,"rot5":5,"rot6":-5,"dil1":0.925,"dil2":0.875,"dil3":1.025,"dil4":1.125,"dil5":0.975,"dil6":1.075,"rots":[-15,-25,15,25,5,-5],"dils":[0.925,0.875,1.025,1.125,0.975,1.075],"loop_number":1,"everTouched":null}],"trial_type":"oddball-grid-image","trial_index":1,"time_elapsed":63831,"internal_node_id":"0.0-1.0","ID":"t1589n5lnd"},{"results":[{"id":"train","shape":null,"outlier_type":null,"choice":0,"outlierPosition":0,"success":true,"majorityOfMostRegularShapes":null,"rt":1076.600000000326,"rot1":-5,"rot2":5,"rot3":-25,"rot4":-15,"rot5":15,"rot6":25,"dil1":1.075,"dil2":0.875,"dil3":0.975,"dil4":1.025,"dil5":1.125,"dil6":0.925,"rots":[-5,5,-25,-15,15,25],"dils":[1.075,0.875,0.975,1.025,1.125,0.925],"loop_number":1,"everTouched":null},{"id":"train","shape":null,"outlier_type":null,"choice":0,"outlierPosition":0,"success":true,"majorityOfMostRegularShapes":null,"rt":1026.300000000454,"rot1":15,"rot2":5,"rot3":-25,"rot4":-15,"rot5":25,"rot6":-5,"dil1":0.975,"dil2":1.075,"dil3":1.125,"dil4":1.025,"dil5":0.875,"dil6":0.925,"rots":[15,5,-25,-15,25,-5],"dils":[0.975,1.075,1.125,1.025,0.875,0.925],"loop_number":1,"everTouched":null},{"id":"train","shape":null,"outlier_type":null,"choice":4,"outlierPosition":4,"success":true,"majorityOfMostRegularShapes":null,"rt":916.9999999994616,"rot1":-5,"rot2":25,"rot3":15,"rot4":-25,"rot5":5,"rot6":-15,"dil1":0.975,"dil2":0.925,"dil3":1.125,"dil4":0.875,"dil5":1.075,"dil6":1.025,"rots":[-5,25,15,-25,5,-15],"dils":[0.975,0.925,1.125,0.875,1.075,1.025],"loop_number":1,"everTouched":null},{"id":"train","shape":null,"outlier_type":null,"choice":0,"outlierPosition":0,"success":true,"majorityOfMostRegularShapes":null,"rt":951.1999999995169,"rot1":-15,"rot2":-25,"rot3":5,"rot4":15,"rot5":-5,"rot6":25,"dil1":1.025,"dil2":1.125,"dil3":0.925,"dil4":0.975,"dil5":1.075,"dil6":0.875,"rots":[-15,-25,5,15,-5,25],"dils":[1.025,1.125,0.925,0.975,1.075,0.875],"loop_number":1,"everTouched":null},{"id":"train","shape":null,"outlier_type":null,"choice":4,"outlierPosition":4,"success":true,"majorityOfMostRegularShapes":null,"rt":983.0000000001746,"rot1":25,"rot2":15,"rot3":5,"rot4":-5,"rot5":-25,"rot6":-15,"dil1":1.025,"dil2":0.975,"dil3":1.125,"dil4":1.075,"dil5":0.875,"dil6":0.925,"rots":[25,15,5,-5,-25,-15],"dils":[1.025,0.975,1.125,1.075,0.875,0.925],"loop_number":1,"everTouched":null},{"id":"train","shape":null,"outlier_type":null,"choice":5,"outlierPosition":5,"success":true,"majorityOfMostRegularShapes":null,"rt":1285.700000000361,"rot1":-15,"rot2":-25,"rot3":15,"rot4":5,"rot5":25,"rot6":-5,"dil1":0.875,"dil2":0.975,"dil3":1.075,"dil4":0.925,"dil5":1.125,"dil6":1.025,"rots":[-15,-25,15,5,25,-5],"dils":[0.875,0.975,1.075,0.925,1.125,1.025],"loop_number":1,"everTouched":null}],"desiredDistance":0.3,"trial_type":"oddball-grid-easy","trial_index":2,"time_elapsed":80278,"internal_node_id":"0.0-2.0","ID":"t1589n5lnd"},{"results":[{"id":"test","shape":"kite","outlier_type":3,"choice":3,"outlierPosition":3,"success":true,"majorityOfMostRegularShapes":true,"rt":6296.400000000183,"rot1":-15,"rot2":15,"rot3":25,"rot4":-25,"rot5":5,"rot6":-5,"dil1":0.925,"dil2":1.075,"dil3":1.025,"dil4":0.975,"dil5":0.875,"dil6":1.125,"rots":[-15,15,25,-25,5,-5],"dils":[0.925,1.075,1.025,0.975,0.875,1.125],"loop_number":"NA","everTouched":null},{"id":"test","shape":"parallelogram","outlier_type":2,"choice":3,"outlierPosition":3,"success":true,"majorityOfMostRegularShapes":true,"rt":2762.7999999995227,"rot1":-5,"rot2":5,"rot3":-25,"rot4":15,"rot5":-15,"rot6":25,"dil1":0.875,"dil2":0.925,"dil3":1.125,"dil4":0.975,"dil5":1.025,"dil6":1.075,"rots":[-5,5,-25,15,-15,25],"dils":[0.875,0.925,1.125,0.975,1.025,1.075],"loop_number":"NA","everTouched":null},{"id":"test","shape":"hinge","outlier_type":0,"choice":4,"outlierPosition":4,"success":true,"majorityOfMostRegularShapes":true,"rt":7942.10000000021,"rot1":-15,"rot2":25,"rot3":-5,"rot4":15,"rot5":5,"rot6":-25,"dil1":0.925,"dil2":1.025,"dil3":0.975,"dil4":1.125,"dil5":0.875,"dil6":1.075,"rots":[-15,25,-5,15,5,-25],"dils":[0.925,1.025,0.975,1.125,0.875,1.075],"loop_number":"NA","everTouched":null},{"id":"test","shape":"trapezoid","outlier_type":1,"choice":4,"outlierPosition":4,"success":true,"majorityOfMostRegularShapes":true,"rt":6654.300000000163,"rot1":25,"rot2":-15,"rot3":5,"rot4":-5,"rot5":15,"rot6":-25,"dil1":0.925,"dil2":0.875,"dil3":1.125,"dil4":1.025,"dil5":1.075,"dil6":0.975,"rots":[25,-15,5,-5,15,-25],"dils":[0.925,0.875,1.125,1.025,1.075,0.975],"loop_number":"NA","everTouched":null},{"id":"test","shape":"random","outlier_type":3,"choice":1,"outlierPosition":3,"success":false,"majorityOfMostRegularShapes":true,"rt":15275.099999999846,"rot1":5,"rot2":-25,"rot3":25,"rot4":-15,"rot5":15,"rot6":-5,"dil1":0.975,"dil2":1.125,"dil3":1.025,"dil4":1.075,"dil5":0.925,"dil6":0.875,"rots":[5,-25,25,-15,15,-5],"dils":[0.975,1.125,1.025,1.075,0.925,0.875],"loop_number":"NA","everTouched":null},{"id":"test","shape":"square","outlier_type":2,"choice":2,"outlierPosition":2,"success":true,"majorityOfMostRegularShapes":true,"rt":1744.899999999674,"rot1":5,"rot2":15,"rot3":-25,"rot4":25,"rot5":-15,"rot6":-5,"dil1":1.075,"dil2":1.125,"dil3":1.025,"dil4":0.875,"dil5":0.925,"dil6":0.975,"rots":[5,15,-25,25,-15,-5],"dils":[1.075,1.125,1.025,0.875,0.925,0.975],"loop_number":"NA","everTouched":null},{"id":"test","shape":"rightKite","outlier_type":1,"choice":5,"outlierPosition":4,"success":false,"majorityOfMostRegularShapes":true,"rt":13024.100000000559,"rot1":25,"rot2":15,"rot3":-15,"rot4":5,"rot5":-5,"rot6":-25,"dil1":1.025,"dil2":0.975,"dil3":0.875,"dil4":1.075,"dil5":0.925,"dil6":1.125,"rots":[25,15,-15,5,-5,-25],"dils":[1.025,0.975,0.875,1.075,0.925,1.125],"loop_number":"NA","everTouched":null},{"id":"test","shape":"hinge","outlier_type":3,"choice":4,"outlierPosition":4,"success":true,"majorityOfMostRegularShapes":true,"rt":9420.699999999662,"rot1":25,"rot2":15,"rot3":-25,"rot4":5,"rot5":-5,"rot6":-15,"dil1":1.075,"dil2":0.975,"dil3":1.025,"dil4":0.875,"dil5":0.925,"dil6":1.125,"rots":[25,15,-25,5,-5,-15],"dils":[1.075,0.975,1.025,0.875,0.925,1.125],"loop_number":"NA","everTouched":null},{"id":"test","shape":"trapezoid","outlier_type":2,"choice":0,"outlierPosition":0,"success":true,"majorityOfMostRegularShapes":true,"rt":4239.700000000099,"rot1":-25,"rot2":25,"rot3":5,"rot4":15,"rot5":-5,"rot6":-15,"dil1":1.075,"dil2":1.125,"dil3":0.975,"dil4":1.025,"dil5":0.925,"dil6":0.875,"rots":[-25,25,5,15,-5,-15],"dils":[1.075,1.125,0.975,1.025,0.925,0.875],"loop_number":"NA","everTouched":null},{"id":"test","shape":"rustedHinge","outlier_type":0,"choice":3,"outlierPosition":0,"success":false,"majorityOfMostRegularShapes":true,"rt":9613.099999999598,"rot1":-15,"rot2":5,"rot3":15,"rot4":25,"rot5":-5,"rot6":-25,"dil1":0.875,"dil2":1.025,"dil3":1.075,"dil4":0.975,"dil5":0.925,"dil6":1.125,"rots":[-15,5,15,25,-5,-25],"dils":[0.875,1.025,1.075,0.975,0.925,1.125],"loop_number":"NA","everTouched":null},{"id":"test","shape":"hinge","outlier_type":1,"choice":4,"outlierPosition":4,"success":true,"majorityOfMostRegularShapes":true,"rt":2239.1999999999825,"rot1":5,"rot2":-15,"rot3":-5,"rot4":15,"rot5":25,"rot6":-25,"dil1":1.025,"dil2":1.075,"dil3":1.125,"dil4":0.925,"dil5":0.875,"dil6":0.975,"rots":[5,-15,-5,15,25,-25],"dils":[1.025,1.075,1.125,0.925,0.875,0.975],"loop_number":"NA","everTouched":null},{"id":"test","shape":"square","outlier_type":0,"choice":0,"outlierPosition":0,"success":true,"majorityOfMostRegularShapes":true,"rt":2466.0999999996566,"rot1":-5,"rot2":-25,"rot3":-15,"rot4":15,"rot5":25,"rot6":5,"dil1":1.025,"dil2":0.975,"dil3":0.925,"dil4":1.075,"dil5":0.875,"dil6":1.125,"rots":[-5,-25,-15,15,25,5],"dils":[1.025,0.975,0.925,1.075,0.875,1.125],"loop_number":"NA","everTouched":null},{"id":"test","shape":"rustedHinge","outlier_type":1,"choice":3,"outlierPosition":3,"success":true,"majorityOfMostRegularShapes":true,"rt":2501.8000000000175,"rot1":-5,"rot2":-25,"rot3":5,"rot4":-15,"rot5":25,"rot6":15,"dil1":0.925,"dil2":1.125,"dil3":1.075,"dil4":1.025,"dil5":0.975,"dil6":0.875,"rots":[-5,-25,5,-15,25,15],"dils":[0.925,1.125,1.075,1.025,0.975,0.875],"loop_number":"NA","everTouched":null},{"id":"test","shape":"rightKite","outlier_type":2,"choice":3,"outlierPosition":3,"success":true,"majorityOfMostRegularShapes":true,"rt":3616.800000000687,"rot1":25,"rot2":5,"rot3":15,"rot4":-25,"rot5":-15,"rot6":-5,"dil1":0.975,"dil2":1.075,"dil3":0.925,"dil4":1.125,"dil5":0.875,"dil6":1.025,"rots":[25,5,15,-25,-15,-5],"dils":[0.975,1.075,0.925,1.125,0.875,1.025],"loop_number":"NA","everTouched":null},{"id":"test","shape":"trapezoid","outlier_type":0,"choice":2,"outlierPosition":2,"success":true,"majorityOfMostRegularShapes":true,"rt":2680.899999999383,"rot1":-15,"rot2":-25,"rot3":25,"rot4":15,"rot5":-5,"rot6":5,"dil1":0.925,"dil2":1.075,"dil3":1.025,"dil4":0.875,"dil5":0.975,"dil6":1.125,"rots":[-15,-25,25,15,-5,5],"dils":[0.925,1.075,1.025,0.875,0.975,1.125],"loop_number":"NA","everTouched":null},{"id":"test","shape":"parallelogram","outlier_type":3,"choice":0,"outlierPosition":0,"success":true,"majorityOfMostRegularShapes":true,"rt":2581.59999999954,"rot1":-15,"rot2":15,"rot3":-25,"rot4":25,"rot5":5,"rot6":-5,"dil1":0.875,"dil2":1.025,"dil3":0.975,"dil4":0.925,"dil5":1.075,"dil6":1.125,"rots":[-15,15,-25,25,5,-5],"dils":[0.875,1.025,0.975,0.925,1.075,1.125],"loop_number":"NA","everTouched":null},{"id":"test","shape":"rectangle","outlier_type":1,"choice":4,"outlierPosition":4,"success":true,"majorityOfMostRegularShapes":true,"rt":1611.3999999997905,"rot1":5,"rot2":-15,"rot3":15,"rot4":-25,"rot5":25,"rot6":-5,"dil1":0.875,"dil2":0.975,"dil3":1.075,"dil4":1.025,"dil5":1.125,"dil6":0.925,"rots":[5,-15,15,-25,25,-5],"dils":[0.875,0.975,1.075,1.025,1.125,0.925],"loop_number":"NA","everTouched":null},{"id":"test","shape":"losange","outlier_type":3,"choice":5,"outlierPosition":3,"success":false,"majorityOfMostRegularShapes":true,"rt":5213.699999999342,"rot1":-25,"rot2":15,"rot3":5,"rot4":-5,"rot5":25,"rot6":-15,"dil1":0.925,"dil2":0.975,"dil3":1.025,"dil4":0.875,"dil5":1.075,"dil6":1.125,"rots":[-25,15,5,-5,25,-15],"dils":[0.925,0.975,1.025,0.875,1.075,1.125],"loop_number":"NA","everTouched":null},{"id":"test","shape":"random","outlier_type":0,"choice":3,"outlierPosition":1,"success":false,"majorityOfMostRegularShapes":true,"rt":12760.499999999389,"rot1":25,"rot2":15,"rot3":5,"rot4":-25,"rot5":-5,"rot6":-15,"dil1":1.075,"dil2":1.125,"dil3":1.025,"dil4":0.925,"dil5":0.875,"dil6":0.975,"rots":[25,15,5,-25,-5,-15],"dils":[1.075,1.125,1.025,0.925,0.875,0.975],"loop_number":"NA","everTouched":null},{"id":"test","shape":"isoTrapezoid","outlier_type":2,"choice":2,"outlierPosition":2,"success":true,"majorityOfMostRegularShapes":true,"rt":3646.200000000128,"rot1":-5,"rot2":25,"rot3":5,"rot4":-15,"rot5":-25,"rot6":15,"dil1":0.975,"dil2":0.925,"dil3":1.025,"dil4":1.125,"dil5":0.875,"dil6":1.075,"rots":[-5,25,5,-15,-25,15],"dils":[0.975,0.925,1.025,1.125,0.875,1.075],"loop_number":"NA","everTouched":null},{"id":"test","shape":"rectangle","outlier_type":3,"choice":0,"outlierPosition":0,"success":true,"majorityOfMostRegularShapes":true,"rt":1691.100000000035,"rot1":25,"rot2":-5,"rot3":15,"rot4":-15,"rot5":-25,"rot6":5,"dil1":0.925,"dil2":1.025,"dil3":1.075,"dil4":0.975,"dil5":1.125,"dil6":0.875,"rots":[25,-5,15,-15,-25,5],"dils":[0.925,1.025,1.075,0.975,1.125,0.875],"loop_number":"NA","everTouched":null},{"id":"test","shape":"losange","outlier_type":0,"choice":0,"outlierPosition":4,"success":false,"majorityOfMostRegularShapes":true,"rt":9839.699999999517,"rot1":25,"rot2":-25,"rot3":5,"rot4":-15,"rot5":15,"rot6":-5,"dil1":1.075,"dil2":0.875,"dil3":1.125,"dil4":1.025,"dil5":0.925,"dil6":0.975,"rots":[25,-25,5,-15,15,-5],"dils":[1.075,0.875,1.125,1.025,0.925,0.975],"loop_number":"NA","everTouched":null},{"id":"test","shape":"trapezoid","outlier_type":3,"choice":3,"outlierPosition":0,"success":false,"majorityOfMostRegularShapes":true,"rt":6250.599999999395,"rot1":-5,"rot2":-15,"rot3":-25,"rot4":15,"rot5":5,"rot6":25,"dil1":0.975,"dil2":1.075,"dil3":1.025,"dil4":0.875,"dil5":0.925,"dil6":1.125,"rots":[-5,-15,-25,15,5,25],"dils":[0.975,1.075,1.025,0.875,0.925,1.125],"loop_number":"NA","everTouched":null},{"id":"test","shape":"isoTrapezoid","outlier_type":1,"choice":0,"outlierPosition":0,"success":true,"majorityOfMostRegularShapes":true,"rt":2802.000000000582,"rot1":5,"rot2":-25,"rot3":-15,"rot4":15,"rot5":25,"rot6":-5,"dil1":0.875,"dil2":1.125,"dil3":0.975,"dil4":1.025,"dil5":0.925,"dil6":1.075,"rots":[5,-25,-15,15,25,-5],"dils":[0.875,1.125,0.975,1.025,0.925,1.075],"loop_number":"NA","everTouched":null},{"id":"test","shape":"square","outlier_type":3,"choice":0,"outlierPosition":0,"success":true,"majorityOfMostRegularShapes":true,"rt":1991.3999999998778,"rot1":15,"rot2":-25,"rot3":-15,"rot4":25,"rot5":5,"rot6":-5,"dil1":1.025,"dil2":0.975,"dil3":0.875,"dil4":1.125,"dil5":0.925,"dil6":1.075,"rots":[15,-25,-15,25,5,-5],"dils":[1.025,0.975,0.875,1.125,0.925,1.075],"loop_number":"NA","everTouched":null},{"id":"test","shape":"random","outlier_type":1,"choice":5,"outlierPosition":1,"success":false,"majorityOfMostRegularShapes":true,"rt":4696.100000000093,"rot1":-15,"rot2":15,"rot3":-5,"rot4":5,"rot5":25,"rot6":-25,"dil1":0.975,"dil2":0.925,"dil3":1.025,"dil4":1.125,"dil5":1.075,"dil6":0.875,"rots":[-15,15,-5,5,25,-25],"dils":[0.975,0.925,1.025,1.125,1.075,0.875],"loop_number":"NA","everTouched":null},{"id":"test","shape":"rightKite","outlier_type":0,"choice":1,"outlierPosition":3,"success":false,"majorityOfMostRegularShapes":true,"rt":7597.899999999732,"rot1":15,"rot2":-25,"rot3":5,"rot4":-15,"rot5":25,"rot6":-5,"dil1":0.975,"dil2":1.025,"dil3":1.075,"dil4":0.875,"dil5":0.925,"dil6":1.125,"rots":[15,-25,5,-15,25,-5],"dils":[0.975,1.025,1.075,0.875,0.925,1.125],"loop_number":"NA","everTouched":null},{"id":"test","shape":"random","outlier_type":2,"choice":5,"outlierPosition":3,"success":false,"majorityOfMostRegularShapes":true,"rt":12512.499999999825,"rot1":-15,"rot2":5,"rot3":-5,"rot4":25,"rot5":15,"rot6":-25,"dil1":0.875,"dil2":1.025,"dil3":0.925,"dil4":1.075,"dil5":1.125,"dil6":0.975,"rots":[-15,5,-5,25,15,-25],"dils":[0.875,1.025,0.925,1.075,1.125,0.975],"loop_number":"NA","everTouched":null},{"id":"test","shape":"kite","outlier_type":1,"choice":1,"outlierPosition":1,"success":true,"majorityOfMostRegularShapes":true,"rt":3316.4999999998836,"rot1":-5,"rot2":5,"rot3":-25,"rot4":25,"rot5":15,"rot6":-15,"dil1":1.125,"dil2":0.925,"dil3":0.975,"dil4":1.075,"dil5":0.875,"dil6":1.025,"rots":[-5,5,-25,25,15,-15],"dils":[1.125,0.925,0.975,1.075,0.875,1.025],"loop_number":"NA","everTouched":null},{"id":"test","shape":"rustedHinge","outlier_type":3,"choice":4,"outlierPosition":1,"success":false,"majorityOfMostRegularShapes":true,"rt":18794.89999999985,"rot1":15,"rot2":-15,"rot3":5,"rot4":-5,"rot5":-25,"rot6":25,"dil1":0.975,"dil2":0.925,"dil3":1.125,"dil4":0.875,"dil5":1.025,"dil6":1.075,"rots":[15,-15,5,-5,-25,25],"dils":[0.975,0.925,1.125,0.875,1.025,1.075],"loop_number":"NA","everTouched":null},{"id":"test","shape":"parallelogram","outlier_type":1,"choice":3,"outlierPosition":3,"success":true,"majorityOfMostRegularShapes":true,"rt":3102.499999999942,"rot1":15,"rot2":25,"rot3":5,"rot4":-15,"rot5":-25,"rot6":-5,"dil1":1.125,"dil2":0.975,"dil3":0.875,"dil4":0.925,"dil5":1.075,"dil6":1.025,"rots":[15,25,5,-15,-25,-5],"dils":[1.125,0.975,0.875,0.925,1.075,1.025],"loop_number":"NA","everTouched":null},{"id":"test","shape":"kite","outlier_type":0,"choice":4,"outlierPosition":4,"success":true,"majorityOfMostRegularShapes":true,"rt":7466.399999999383,"rot1":15,"rot2":-25,"rot3":5,"rot4":-15,"rot5":25,"rot6":-5,"dil1":1.125,"dil2":1.025,"dil3":0.875,"dil4":1.075,"dil5":0.925,"dil6":0.975,"rots":[15,-25,5,-15,25,-5],"dils":[1.125,1.025,0.875,1.075,0.925,0.975],"loop_number":"NA","everTouched":null},{"id":"test","shape":"rectangle","outlier_type":2,"choice":4,"outlierPosition":4,"success":true,"majorityOfMostRegularShapes":true,"rt":3141.3999999995576,"rot1":-5,"rot2":15,"rot3":25,"rot4":-15,"rot5":-25,"rot6":5,"dil1":1.125,"dil2":1.075,"dil3":0.975,"dil4":0.925,"dil5":0.875,"dil6":1.025,"rots":[-5,15,25,-15,-25,5],"dils":[1.125,1.075,0.975,0.925,0.875,1.025],"loop_number":"NA","everTouched":null},{"id":"test","shape":"square","outlier_type":1,"choice":5,"outlierPosition":5,"success":true,"majorityOfMostRegularShapes":true,"rt":1312.3999999997905,"rot1":15,"rot2":-15,"rot3":-25,"rot4":25,"rot5":5,"rot6":-5,"dil1":0.975,"dil2":1.025,"dil3":1.075,"dil4":0.925,"dil5":1.125,"dil6":0.875,"rots":[15,-15,-25,25,5,-5],"dils":[0.975,1.025,1.075,0.925,1.125,0.875],"loop_number":"NA","everTouched":null},{"id":"test","shape":"rectangle","outlier_type":0,"choice":2,"outlierPosition":2,"success":true,"majorityOfMostRegularShapes":true,"rt":1870.3000000005122,"rot1":-15,"rot2":5,"rot3":25,"rot4":-25,"rot5":-5,"rot6":15,"dil1":0.975,"dil2":0.875,"dil3":0.925,"dil4":1.075,"dil5":1.125,"dil6":1.025,"rots":[-15,5,25,-25,-5,15],"dils":[0.975,0.875,0.925,1.075,1.125,1.025],"loop_number":"NA","everTouched":null},{"id":"test","shape":"losange","outlier_type":2,"choice":4,"outlierPosition":4,"success":true,"majorityOfMostRegularShapes":true,"rt":1925.4000000000815,"rot1":-5,"rot2":15,"rot3":5,"rot4":-15,"rot5":25,"rot6":-25,"dil1":0.875,"dil2":1.075,"dil3":0.975,"dil4":1.025,"dil5":0.925,"dil6":1.125,"rots":[-5,15,5,-15,25,-25],"dils":[0.875,1.075,0.975,1.025,0.925,1.125],"loop_number":"NA","everTouched":null},{"id":"test","shape":"rightKite","outlier_type":3,"choice":0,"outlierPosition":2,"success":false,"majorityOfMostRegularShapes":true,"rt":8481.89999999979,"rot1":-15,"rot2":15,"rot3":25,"rot4":5,"rot5":-25,"rot6":-5,"dil1":0.875,"dil2":0.975,"dil3":0.925,"dil4":1.125,"dil5":1.025,"dil6":1.075,"rots":[-15,15,25,5,-25,-5],"dils":[0.875,0.975,0.925,1.125,1.025,1.075],"loop_number":"NA","everTouched":null},{"id":"test","shape":"rustedHinge","outlier_type":2,"choice":1,"outlierPosition":3,"success":false,"majorityOfMostRegularShapes":true,"rt":10748.200000000012,"rot1":15,"rot2":25,"rot3":-15,"rot4":-25,"rot5":5,"rot6":-5,"dil1":0.875,"dil2":0.925,"dil3":1.125,"dil4":1.075,"dil5":1.025,"dil6":0.975,"rots":[15,25,-15,-25,5,-5],"dils":[0.875,0.925,1.125,1.075,1.025,0.975],"loop_number":"NA","everTouched":null},{"id":"test","shape":"losange","outlier_type":1,"choice":3,"outlierPosition":3,"success":true,"majorityOfMostRegularShapes":true,"rt":3637.999999999942,"rot1":5,"rot2":15,"rot3":-15,"rot4":25,"rot5":-5,"rot6":-25,"dil1":0.975,"dil2":0.875,"dil3":1.025,"dil4":1.075,"dil5":1.125,"dil6":0.925,"rots":[5,15,-15,25,-5,-25],"dils":[0.975,0.875,1.025,1.075,1.125,0.925],"loop_number":"NA","everTouched":null},{"id":"test","shape":"kite","outlier_type":2,"choice":1,"outlierPosition":1,"success":true,"majorityOfMostRegularShapes":true,"rt":2660.6000000001513,"rot1":-15,"rot2":15,"rot3":5,"rot4":25,"rot5":-25,"rot6":-5,"dil1":1.025,"dil2":0.875,"dil3":1.125,"dil4":0.925,"dil5":0.975,"dil6":1.075,"rots":[-15,15,5,25,-25,-5],"dils":[1.025,0.875,1.125,0.925,0.975,1.075],"loop_number":"NA","everTouched":null},{"id":"test","shape":"parallelogram","outlier_type":0,"choice":5,"outlierPosition":5,"success":true,"majorityOfMostRegularShapes":true,"rt":3821.2000000003027,"rot1":-5,"rot2":-25,"rot3":15,"rot4":25,"rot5":5,"rot6":-15,"dil1":0.975,"dil2":0.925,"dil3":1.125,"dil4":1.025,"dil5":0.875,"dil6":1.075,"rots":[-5,-25,15,25,5,-15],"dils":[0.975,0.925,1.125,1.025,0.875,1.075],"loop_number":"NA","everTouched":null},{"id":"test","shape":"isoTrapezoid","outlier_type":3,"choice":2,"outlierPosition":2,"success":true,"majorityOfMostRegularShapes":true,"rt":1931.8000000003376,"rot1":5,"rot2":15,"rot3":-25,"rot4":-5,"rot5":-15,"rot6":25,"dil1":1.075,"dil2":1.125,"dil3":0.875,"dil4":0.975,"dil5":0.925,"dil6":1.025,"rots":[5,15,-25,-5,-15,25],"dils":[1.075,1.125,0.875,0.975,0.925,1.025],"loop_number":"NA","everTouched":null},{"id":"test","shape":"hinge","outlier_type":2,"choice":4,"outlierPosition":4,"success":true,"majorityOfMostRegularShapes":true,"rt":3309.39999999915,"rot1":-15,"rot2":-25,"rot3":15,"rot4":5,"rot5":25,"rot6":-5,"dil1":0.925,"dil2":0.975,"dil3":0.875,"dil4":1.025,"dil5":1.075,"dil6":1.125,"rots":[-15,-25,15,5,25,-5],"dils":[0.925,0.975,0.875,1.025,1.075,1.125],"loop_number":"NA","everTouched":null},{"id":"test","shape":"isoTrapezoid","outlier_type":0,"choice":2,"outlierPosition":2,"success":true,"majorityOfMostRegularShapes":true,"rt":2769.000000000233,"rot1":-15,"rot2":-25,"rot3":5,"rot4":-5,"rot5":15,"rot6":25,"dil1":1.025,"dil2":0.875,"dil3":0.975,"dil4":1.125,"dil5":1.075,"dil6":0.925,"rots":[-15,-25,5,-5,15,25],"dils":[1.025,0.875,0.975,1.125,1.075,0.925],"loop_number":"NA","everTouched":null}],"desiredDistance":0.3,"trial_type":"oddball-grid","trial_index":3,"time_elapsed":398142,"internal_node_id":"0.0-3.0","ID":"t1589n5lnd"},{"success":true,"trial_type":"fullscreen","trial_index":4,"time_elapsed":405158,"internal_node_id":"0.0-4.0","ID":"t1589n5lnd"}]