[{"success":true,"trial_type":"fullscreen","trial_index":0,"time_elapsed":17958,"internal_node_id":"0.0-0.0","ID":"5u41b52w4f"},{"results":[{"id":"train-images","shape":"9","outlier_type":"NA","choice":2,"outlierPosition":2,"success":true,"majorityOfMostRegularShapes":"NA","rt":8186.200000000099,"rot1":-15,"rot2":25,"rot3":5,"rot4":15,"rot5":-25,"rot6":-5,"dil1":0.875,"dil2":0.975,"dil3":0.925,"dil4":1.025,"dil5":1.125,"dil6":1.075,"rots":[-15,25,5,15,-25,-5],"dils":[0.875,0.975,0.925,1.025,1.125,1.075],"loop_number":1,"everTouched":null},{"id":"train-images","shape":"4","outlier_type":"NA","choice":3,"outlierPosition":3,"success":true,"majorityOfMostRegularShapes":"NA","rt":2178.200000000288,"rot1":5,"rot2":15,"rot3":-25,"rot4":25,"rot5":-15,"rot6":-5,"dil1":0.925,"dil2":1.125,"dil3":0.875,"dil4":1.075,"dil5":1.025,"dil6":0.975,"rots":[5,15,-25,25,-15,-5],"dils":[0.925,1.125,0.875,1.075,1.025,0.975],"loop_number":1,"everTouched":null},{"id":"train-images","shape":"10","outlier_type":"NA","choice":1,"outlierPosition":1,"success":true,"majorityOfMostRegularShapes":"NA","rt":1439.5000000004075,"rot1":15,"rot2":-15,"rot3":25,"rot4":-5,"rot5":5,"rot6":-25,"dil1":0.875,"dil2":1.025,"dil3":1.125,"dil4":1.075,"dil5":0.925,"dil6":0.975,"rots":[15,-15,25,-5,5,-25],"dils":[0.875,1.025,1.125,1.075,0.925,0.975],"loop_number":1,"everTouched":null},{"id":"train-images","shape":"6","outlier_type":"NA","choice":4,"outlierPosition":4,"success":true,"majorityOfMostRegularShapes":"NA","rt":1619.5999999999913,"rot1":15,"rot2":25,"rot3":-5,"rot4":5,"rot5":-15,"rot6":-25,"dil1":1.025,"dil2":1.125,"dil3":0.975,"dil4":0.875,"dil5":0.925,"dil6":1.075,"rots":[15,25,-5,5,-15,-25],"dils":[1.025,1.125,0.975,0.875,0.925,1.075],"loop_number":1,"everTouched":null},{"id":"train-images","shape":"3","outlier_type":"NA","choice":0,"outlierPosition":0,"success":true,"majorityOfMostRegularShapes":"NA","rt":1589.8000000006505,"rot1":5,"rot2":25,"rot3":-25,"rot4":15,"rot5":-15,"rot6":-5,"dil1":1.125,"dil2":0.975,"dil3":1.075,"dil4":1.025,"dil5":0.875,"dil6":0.925,"rots":[5,25,-25,15,-15,-5],"dils":[1.125,0.975,1.075,1.025,0.875,0.925],"loop_number":1,"everTouched":null},{"id":"train-images","shape":"5","outlier_type":"NA","choice":0,"outlierPosition":0,"success":true,"majorityOfMostRegularShapes":"NA","rt":1499.6999999994005,"rot1":-5,"rot2":-25,"rot3":-15,"rot4":15,"rot5":5,"rot6":25,"dil1":0.875,"dil2":1.075,"dil3":0.925,"dil4":1.025,"dil5":0.975,"dil6":1.125,"rots":[-5,-25,-15,15,5,25],"dils":[0.875,1.075,0.925,1.025,0.975,1.125],"loop_number":1,"everTouched":null},{"id":"train-images","shape":"1","outlier_type":"NA","choice":4,"outlierPosition":4,"success":true,"majorityOfMostRegularShapes":"NA","rt":1086.9000000002416,"rot1":5,"rot2":-25,"rot3":-15,"rot4":25,"rot5":15,"rot6":-5,"dil1":0.925,"dil2":1.075,"dil3":0.975,"dil4":1.125,"dil5":1.025,"dil6":0.875,"rots":[5,-25,-15,25,15,-5],"dils":[0.925,1.075,0.975,1.125,1.025,0.875],"loop_number":1,"everTouched":null},{"id":"train-images","shape":"7","outlier_type":"NA","choice":2,"outlierPosition":2,"success":true,"majorityOfMostRegularShapes":"NA","rt":954.3999999996158,"rot1":-5,"rot2":-25,"rot3":15,"rot4":-15,"rot5":25,"rot6":5,"dil1":1.125,"dil2":1.075,"dil3":0.975,"dil4":0.925,"dil5":1.025,"dil6":0.875,"rots":[-5,-25,15,-15,25,5],"dils":[1.125,1.075,0.975,0.925,1.025,0.875],"loop_number":1,"everTouched":null},{"id":"train-images","shape":"2","outlier_type":"NA","choice":1,"outlierPosition":1,"success":true,"majorityOfMostRegularShapes":"NA","rt":1087.3000000001339,"rot1":5,"rot2":-5,"rot3":15,"rot4":-15,"rot5":25,"rot6":-25,"dil1":0.875,"dil2":1.025,"dil3":1.075,"dil4":1.125,"dil5":0.975,"dil6":0.925,"rots":[5,-5,15,-15,25,-25],"dils":[0.875,1.025,1.075,1.125,0.975,0.925],"loop_number":1,"everTouched":null},{"id":"train-images","shape":"8","outlier_type":"NA","choice":2,"outlierPosition":2,"success":true,"majorityOfMostRegularShapes":"NA","rt":987.4000000008964,"rot1":-25,"rot2":-15,"rot3":15,"rot4":5,"rot5":25,"rot6":-5,"dil1":0.925,"dil2":1.125,"dil3":0.975,"dil4":1.025,"dil5":0.875,"dil6":1.075,"rots":[-25,-15,15,5,25,-5],"dils":[0.925,1.125,0.975,1.025,0.875,1.075],"loop_number":1,"everTouched":null}],"trial_type":"oddball-grid-image","trial_index":1,"time_elapsed":77202,"internal_node_id":"0.0-1.0","ID":"5u41b52w4f"},{"results":[{"id":"train","shape":null,"outlier_type":null,"choice":2,"outlierPosition":2,"success":true,"majorityOfMostRegularShapes":null,"rt":1033.1000000005588,"rot1":25,"rot2":5,"rot3":15,"rot4":-5,"rot5":-25,"rot6":-15,"dil1":0.975,"dil2":1.075,"dil3":1.125,"dil4":0.925,"dil5":1.025,"dil6":0.875,"rots":[25,5,15,-5,-25,-15],"dils":[0.975,1.075,1.125,0.925,1.025,0.875],"loop_number":1,"everTouched":null},{"id":"train","shape":null,"outlier_type":null,"choice":4,"outlierPosition":4,"success":true,"majorityOfMostRegularShapes":null,"rt":1083.99999999984,"rot1":-5,"rot2":-25,"rot3":5,"rot4":15,"rot5":-15,"rot6":25,"dil1":1.125,"dil2":0.925,"dil3":0.875,"dil4":1.025,"dil5":0.975,"dil6":1.075,"rots":[-5,-25,5,15,-15,25],"dils":[1.125,0.925,0.875,1.025,0.975,1.075],"loop_number":1,"everTouched":null},{"id":"train","shape":null,"outlier_type":null,"choice":1,"outlierPosition":1,"success":true,"majorityOfMostRegularShapes":null,"rt":1130.1999999996042,"rot1":-25,"rot2":5,"rot3":-5,"rot4":25,"rot5":-15,"rot6":15,"dil1":0.975,"dil2":1.125,"dil3":0.875,"dil4":1.025,"dil5":0.925,"dil6":1.075,"rots":[-25,5,-5,25,-15,15],"dils":[0.975,1.125,0.875,1.025,0.925,1.075],"loop_number":1,"everTouched":null},{"id":"train","shape":null,"outlier_type":null,"choice":4,"outlierPosition":4,"success":true,"majorityOfMostRegularShapes":null,"rt":1045.9000000000815,"rot1":-15,"rot2":5,"rot3":25,"rot4":15,"rot5":-25,"rot6":-5,"dil1":0.925,"dil2":1.075,"dil3":1.125,"dil4":1.025,"dil5":0.875,"dil6":0.975,"rots":[-15,5,25,15,-25,-5],"dils":[0.925,1.075,1.125,1.025,0.875,0.975],"loop_number":1,"everTouched":null},{"id":"train","shape":null,"outlier_type":null,"choice":3,"outlierPosition":3,"success":true,"majorityOfMostRegularShapes":null,"rt":1092.5999999999476,"rot1":5,"rot2":-15,"rot3":-25,"rot4":-5,"rot5":15,"rot6":25,"dil1":0.875,"dil2":0.975,"dil3":1.075,"dil4":0.925,"dil5":1.125,"dil6":1.025,"rots":[5,-15,-25,-5,15,25],"dils":[0.875,0.975,1.075,0.925,1.125,1.025],"loop_number":1,"everTouched":null},{"id":"train","shape":null,"outlier_type":null,"choice":2,"outlierPosition":2,"success":true,"majorityOfMostRegularShapes":null,"rt":1644.1999999997352,"rot1":25,"rot2":-15,"rot3":-5,"rot4":15,"rot5":5,"rot6":-25,"dil1":1.125,"dil2":1.075,"dil3":0.975,"dil4":0.925,"dil5":0.875,"dil6":1.025,"rots":[25,-15,-5,15,5,-25],"dils":[1.125,1.075,0.975,0.925,0.875,1.025],"loop_number":1,"everTouched":null}],"desiredDistance":0.3,"trial_type":"oddball-grid-easy","trial_index":2,"time_elapsed":93220,"internal_node_id":"0.0-2.0","ID":"5u41b52w4f"},{"results":[{"id":"test","shape":"rectangle","outlier_type":1,"choice":1,"outlierPosition":1,"success":true,"majorityOfMostRegularShapes":true,"rt":1334.4999999999272,"rot1":25,"rot2":-15,"rot3":5,"rot4":-5,"rot5":15,"rot6":-25,"dil1":1.125,"dil2":0.975,"dil3":0.875,"dil4":1.025,"dil5":1.075,"dil6":0.925,"rots":[25,-15,5,-5,15,-25],"dils":[1.125,0.975,0.875,1.025,1.075,0.925],"loop_number":"NA","everTouched":null},{"id":"test","shape":"losange","outlier_type":0,"choice":4,"outlierPosition":4,"success":true,"majorityOfMostRegularShapes":true,"rt":4260.8000000000175,"rot1":-5,"rot2":-15,"rot3":5,"rot4":25,"rot5":15,"rot6":-25,"dil1":0.975,"dil2":1.025,"dil3":0.925,"dil4":1.075,"dil5":1.125,"dil6":0.875,"rots":[-5,-15,5,25,15,-25],"dils":[0.975,1.025,0.925,1.075,1.125,0.875],"loop_number":"NA","everTouched":null},{"id":"test","shape":"rightKite","outlier_type":2,"choice":3,"outlierPosition":3,"success":true,"majorityOfMostRegularShapes":true,"rt":3573.099999999613,"rot1":5,"rot2":-15,"rot3":-25,"rot4":-5,"rot5":25,"rot6":15,"dil1":1.025,"dil2":1.125,"dil3":1.075,"dil4":0.875,"dil5":0.925,"dil6":0.975,"rots":[5,-15,-25,-5,25,15],"dils":[1.025,1.125,1.075,0.875,0.925,0.975],"loop_number":"NA","everTouched":null},{"id":"test","shape":"parallelogram","outlier_type":1,"choice":2,"outlierPosition":2,"success":true,"majorityOfMostRegularShapes":true,"rt":3475.0999999996566,"rot1":25,"rot2":-25,"rot3":-15,"rot4":5,"rot5":15,"rot6":-5,"dil1":0.975,"dil2":0.925,"dil3":1.025,"dil4":1.075,"dil5":1.125,"dil6":0.875,"rots":[25,-25,-15,5,15,-5],"dils":[0.975,0.925,1.025,1.075,1.125,0.875],"loop_number":"NA","everTouched":null},{"id":"test","shape":"isoTrapezoid","outlier_type":3,"choice":5,"outlierPosition":5,"success":true,"majorityOfMostRegularShapes":true,"rt":2190.6999999991967,"rot1":15,"rot2":-15,"rot3":5,"rot4":25,"rot5":-25,"rot6":-5,"dil1":0.975,"dil2":1.125,"dil3":1.025,"dil4":0.875,"dil5":0.925,"dil6":1.075,"rots":[15,-15,5,25,-25,-5],"dils":[0.975,1.125,1.025,0.875,0.925,1.075],"loop_number":"NA","everTouched":null},{"id":"test","shape":"rustedHinge","outlier_type":1,"choice":2,"outlierPosition":2,"success":true,"majorityOfMostRegularShapes":true,"rt":2492.1000000003987,"rot1":-25,"rot2":5,"rot3":25,"rot4":-5,"rot5":-15,"rot6":15,"dil1":0.875,"dil2":0.975,"dil3":1.125,"dil4":1.025,"dil5":0.925,"dil6":1.075,"rots":[-25,5,25,-5,-15,15],"dils":[0.875,0.975,1.125,1.025,0.925,1.075],"loop_number":"NA","everTouched":null},{"id":"test","shape":"parallelogram","outlier_type":0,"choice":0,"outlierPosition":0,"success":true,"majorityOfMostRegularShapes":true,"rt":2362.500000000189,"rot1":-25,"rot2":5,"rot3":-15,"rot4":25,"rot5":-5,"rot6":15,"dil1":0.975,"dil2":1.125,"dil3":1.025,"dil4":1.075,"dil5":0.925,"dil6":0.875,"rots":[-25,5,-15,25,-5,15],"dils":[0.975,1.125,1.025,1.075,0.925,0.875],"loop_number":"NA","everTouched":null},{"id":"test","shape":"rightKite","outlier_type":1,"choice":0,"outlierPosition":0,"success":true,"majorityOfMostRegularShapes":true,"rt":8734.199999999866,"rot1":-25,"rot2":-15,"rot3":15,"rot4":5,"rot5":25,"rot6":-5,"dil1":0.925,"dil2":0.875,"dil3":0.975,"dil4":1.125,"dil5":1.075,"dil6":1.025,"rots":[-25,-15,15,5,25,-5],"dils":[0.925,0.875,0.975,1.125,1.075,1.025],"loop_number":"NA","everTouched":null},{"id":"test","shape":"random","outlier_type":0,"choice":5,"outlierPosition":0,"success":false,"majorityOfMostRegularShapes":true,"rt":34189.19999999978,"rot1":-25,"rot2":-5,"rot3":5,"rot4":15,"rot5":-15,"rot6":25,"dil1":0.925,"dil2":1.075,"dil3":1.125,"dil4":0.875,"dil5":1.025,"dil6":0.975,"rots":[-25,-5,5,15,-15,25],"dils":[0.925,1.075,1.125,0.875,1.025,0.975],"loop_number":"NA","everTouched":null},{"id":"test","shape":"trapezoid","outlier_type":1,"choice":5,"outlierPosition":5,"success":true,"majorityOfMostRegularShapes":true,"rt":4945.200000000128,"rot1":-15,"rot2":25,"rot3":-5,"rot4":-25,"rot5":5,"rot6":15,"dil1":0.925,"dil2":1.125,"dil3":0.875,"dil4":0.975,"dil5":1.025,"dil6":1.075,"rots":[-15,25,-5,-25,5,15],"dils":[0.925,1.125,0.875,0.975,1.025,1.075],"loop_number":"NA","everTouched":null},{"id":"test","shape":"random","outlier_type":3,"choice":0,"outlierPosition":0,"success":true,"majorityOfMostRegularShapes":true,"rt":7240.200000000186,"rot1":-5,"rot2":-15,"rot3":-25,"rot4":5,"rot5":25,"rot6":15,"dil1":1.125,"dil2":1.025,"dil3":0.875,"dil4":0.925,"dil5":1.075,"dil6":0.975,"rots":[-5,-15,-25,5,25,15],"dils":[1.125,1.025,0.875,0.925,1.075,0.975],"loop_number":"NA","everTouched":null},{"id":"test","shape":"square","outlier_type":0,"choice":1,"outlierPosition":1,"success":true,"majorityOfMostRegularShapes":true,"rt":3729.1000000004424,"rot1":15,"rot2":25,"rot3":5,"rot4":-25,"rot5":-5,"rot6":-15,"dil1":0.975,"dil2":0.925,"dil3":1.125,"dil4":0.875,"dil5":1.075,"dil6":1.025,"rots":[15,25,5,-25,-5,-15],"dils":[0.975,0.925,1.125,0.875,1.075,1.025],"loop_number":"NA","everTouched":null},{"id":"test","shape":"rectangle","outlier_type":3,"choice":5,"outlierPosition":5,"success":true,"majorityOfMostRegularShapes":true,"rt":3231.0999999999767,"rot1":5,"rot2":-5,"rot3":-15,"rot4":15,"rot5":-25,"rot6":25,"dil1":1.075,"dil2":0.875,"dil3":0.975,"dil4":1.025,"dil5":0.925,"dil6":1.125,"rots":[5,-5,-15,15,-25,25],"dils":[1.075,0.875,0.975,1.025,0.925,1.125],"loop_number":"NA","everTouched":null},{"id":"test","shape":"random","outlier_type":2,"choice":3,"outlierPosition":3,"success":true,"majorityOfMostRegularShapes":true,"rt":6938.100000000326,"rot1":-5,"rot2":15,"rot3":-15,"rot4":5,"rot5":25,"rot6":-25,"dil1":1.075,"dil2":1.125,"dil3":0.975,"dil4":1.025,"dil5":0.875,"dil6":0.925,"rots":[-5,15,-15,5,25,-25],"dils":[1.075,1.125,0.975,1.025,0.875,0.925],"loop_number":"NA","everTouched":null},{"id":"test","shape":"hinge","outlier_type":3,"choice":0,"outlierPosition":0,"success":true,"majorityOfMostRegularShapes":true,"rt":12236.899999999878,"rot1":15,"rot2":-5,"rot3":-25,"rot4":-15,"rot5":25,"rot6":5,"dil1":1.025,"dil2":0.875,"dil3":1.125,"dil4":0.975,"dil5":1.075,"dil6":0.925,"rots":[15,-5,-25,-15,25,5],"dils":[1.025,0.875,1.125,0.975,1.075,0.925],"loop_number":"NA","everTouched":null},{"id":"test","shape":"kite","outlier_type":0,"choice":4,"outlierPosition":4,"success":true,"majorityOfMostRegularShapes":true,"rt":2766.000000000524,"rot1":5,"rot2":25,"rot3":15,"rot4":-5,"rot5":-25,"rot6":-15,"dil1":1.075,"dil2":0.925,"dil3":0.975,"dil4":1.025,"dil5":1.125,"dil6":0.875,"rots":[5,25,15,-5,-25,-15],"dils":[1.075,0.925,0.975,1.025,1.125,0.875],"loop_number":"NA","everTouched":null},{"id":"test","shape":"parallelogram","outlier_type":2,"choice":3,"outlierPosition":3,"success":true,"majorityOfMostRegularShapes":true,"rt":3855.70000000007,"rot1":-15,"rot2":-5,"rot3":25,"rot4":5,"rot5":-25,"rot6":15,"dil1":0.875,"dil2":0.975,"dil3":0.925,"dil4":1.125,"dil5":1.025,"dil6":1.075,"rots":[-15,-5,25,5,-25,15],"dils":[0.875,0.975,0.925,1.125,1.025,1.075],"loop_number":"NA","everTouched":null},{"id":"test","shape":"hinge","outlier_type":1,"choice":0,"outlierPosition":0,"success":true,"majorityOfMostRegularShapes":true,"rt":3805.000000000291,"rot1":-5,"rot2":-15,"rot3":15,"rot4":25,"rot5":5,"rot6":-25,"dil1":1.025,"dil2":0.975,"dil3":0.875,"dil4":1.125,"dil5":1.075,"dil6":0.925,"rots":[-5,-15,15,25,5,-25],"dils":[1.025,0.975,0.875,1.125,1.075,0.925],"loop_number":"NA","everTouched":null},{"id":"test","shape":"rectangle","outlier_type":2,"choice":3,"outlierPosition":3,"success":true,"majorityOfMostRegularShapes":true,"rt":1856.600000000064,"rot1":-5,"rot2":-25,"rot3":5,"rot4":-15,"rot5":25,"rot6":15,"dil1":1.075,"dil2":1.025,"dil3":0.925,"dil4":1.125,"dil5":0.975,"dil6":0.875,"rots":[-5,-25,5,-15,25,15],"dils":[1.075,1.025,0.925,1.125,0.975,0.875],"loop_number":"NA","everTouched":null},{"id":"test","shape":"square","outlier_type":3,"choice":0,"outlierPosition":0,"success":true,"majorityOfMostRegularShapes":true,"rt":2066.4999999999127,"rot1":25,"rot2":-5,"rot3":5,"rot4":-15,"rot5":15,"rot6":-25,"dil1":0.975,"dil2":0.875,"dil3":0.925,"dil4":1.025,"dil5":1.075,"dil6":1.125,"rots":[25,-5,5,-15,15,-25],"dils":[0.975,0.875,0.925,1.025,1.075,1.125],"loop_number":"NA","everTouched":null},{"id":"test","shape":"rightKite","outlier_type":0,"choice":5,"outlierPosition":5,"success":true,"majorityOfMostRegularShapes":true,"rt":1874.4000000006054,"rot1":-5,"rot2":-25,"rot3":15,"rot4":-15,"rot5":5,"rot6":25,"dil1":0.925,"dil2":1.075,"dil3":0.875,"dil4":1.125,"dil5":0.975,"dil6":1.025,"rots":[-5,-25,15,-15,5,25],"dils":[0.925,1.075,0.875,1.125,0.975,1.025],"loop_number":"NA","everTouched":null},{"id":"test","shape":"parallelogram","outlier_type":3,"choice":3,"outlierPosition":3,"success":true,"majorityOfMostRegularShapes":true,"rt":2010.499999999418,"rot1":15,"rot2":-25,"rot3":-5,"rot4":-15,"rot5":5,"rot6":25,"dil1":1.075,"dil2":0.925,"dil3":1.125,"dil4":0.975,"dil5":0.875,"dil6":1.025,"rots":[15,-25,-5,-15,5,25],"dils":[1.075,0.925,1.125,0.975,0.875,1.025],"loop_number":"NA","everTouched":null},{"id":"test","shape":"random","outlier_type":1,"choice":5,"outlierPosition":0,"success":false,"majorityOfMostRegularShapes":true,"rt":9294.70000000039,"rot1":-5,"rot2":5,"rot3":25,"rot4":-15,"rot5":15,"rot6":-25,"dil1":1.075,"dil2":1.025,"dil3":0.925,"dil4":0.975,"dil5":1.125,"dil6":0.875,"rots":[-5,5,25,-15,15,-25],"dils":[1.075,1.025,0.925,0.975,1.125,0.875],"loop_number":"NA","everTouched":null},{"id":"test","shape":"trapezoid","outlier_type":0,"choice":2,"outlierPosition":1,"success":false,"majorityOfMostRegularShapes":true,"rt":2635.4000000001106,"rot1":5,"rot2":25,"rot3":-25,"rot4":-15,"rot5":15,"rot6":-5,"dil1":1.125,"dil2":0.975,"dil3":0.925,"dil4":0.875,"dil5":1.075,"dil6":1.025,"rots":[5,25,-25,-15,15,-5],"dils":[1.125,0.975,0.925,0.875,1.075,1.025],"loop_number":"NA","everTouched":null},{"id":"test","shape":"kite","outlier_type":3,"choice":1,"outlierPosition":1,"success":true,"majorityOfMostRegularShapes":true,"rt":3799.3000000005704,"rot1":5,"rot2":25,"rot3":-15,"rot4":15,"rot5":-5,"rot6":-25,"dil1":1.025,"dil2":0.875,"dil3":0.925,"dil4":1.125,"dil5":1.075,"dil6":0.975,"rots":[5,25,-15,15,-5,-25],"dils":[1.025,0.875,0.925,1.125,1.075,0.975],"loop_number":"NA","everTouched":null},{"id":"test","shape":"rustedHinge","outlier_type":2,"choice":2,"outlierPosition":2,"success":true,"majorityOfMostRegularShapes":true,"rt":7978.699999999662,"rot1":-25,"rot2":15,"rot3":-15,"rot4":-5,"rot5":25,"rot6":5,"dil1":0.975,"dil2":0.875,"dil3":1.025,"dil4":0.925,"dil5":1.125,"dil6":1.075,"rots":[-25,15,-15,-5,25,5],"dils":[0.975,0.875,1.025,0.925,1.125,1.075],"loop_number":"NA","everTouched":null},{"id":"test","shape":"kite","outlier_type":1,"choice":0,"outlierPosition":0,"success":true,"majorityOfMostRegularShapes":true,"rt":4007.2000000000116,"rot1":-25,"rot2":-5,"rot3":15,"rot4":25,"rot5":5,"rot6":-15,"dil1":0.875,"dil2":1.075,"dil3":0.975,"dil4":1.125,"dil5":1.025,"dil6":0.925,"rots":[-25,-5,15,25,5,-15],"dils":[0.875,1.075,0.975,1.125,1.025,0.925],"loop_number":"NA","everTouched":null},{"id":"test","shape":"square","outlier_type":2,"choice":5,"outlierPosition":5,"success":true,"majorityOfMostRegularShapes":true,"rt":2231.7000000002445,"rot1":25,"rot2":15,"rot3":-5,"rot4":5,"rot5":-25,"rot6":-15,"dil1":0.875,"dil2":0.925,"dil3":1.125,"dil4":1.025,"dil5":0.975,"dil6":1.075,"rots":[25,15,-5,5,-25,-15],"dils":[0.875,0.925,1.125,1.025,0.975,1.075],"loop_number":"NA","everTouched":null},{"id":"test","shape":"rectangle","outlier_type":0,"choice":4,"outlierPosition":4,"success":true,"majorityOfMostRegularShapes":true,"rt":1681.300000000163,"rot1":25,"rot2":-5,"rot3":5,"rot4":15,"rot5":-25,"rot6":-15,"dil1":1.125,"dil2":0.975,"dil3":0.875,"dil4":1.025,"dil5":1.075,"dil6":0.925,"rots":[25,-5,5,15,-25,-15],"dils":[1.125,0.975,0.875,1.025,1.075,0.925],"loop_number":"NA","everTouched":null},{"id":"test","shape":"isoTrapezoid","outlier_type":1,"choice":1,"outlierPosition":1,"success":true,"majorityOfMostRegularShapes":true,"rt":4515.199999999837,"rot1":5,"rot2":-15,"rot3":25,"rot4":15,"rot5":-25,"rot6":-5,"dil1":0.925,"dil2":1.075,"dil3":1.125,"dil4":1.025,"dil5":0.975,"dil6":0.875,"rots":[5,-15,25,15,-25,-5],"dils":[0.925,1.075,1.125,1.025,0.975,0.875],"loop_number":"NA","everTouched":null},{"id":"test","shape":"hinge","outlier_type":0,"choice":3,"outlierPosition":0,"success":false,"majorityOfMostRegularShapes":true,"rt":6484.500000000524,"rot1":5,"rot2":-5,"rot3":15,"rot4":-25,"rot5":-15,"rot6":25,"dil1":0.875,"dil2":1.075,"dil3":1.125,"dil4":1.025,"dil5":0.925,"dil6":0.975,"rots":[5,-5,15,-25,-15,25],"dils":[0.875,1.075,1.125,1.025,0.925,0.975],"loop_number":"NA","everTouched":null},{"id":"test","shape":"isoTrapezoid","outlier_type":2,"choice":4,"outlierPosition":4,"success":true,"majorityOfMostRegularShapes":true,"rt":2523.1999999996624,"rot1":-5,"rot2":25,"rot3":5,"rot4":15,"rot5":-25,"rot6":-15,"dil1":0.925,"dil2":1.025,"dil3":1.075,"dil4":0.875,"dil5":1.125,"dil6":0.975,"rots":[-5,25,5,15,-25,-15],"dils":[0.925,1.025,1.075,0.875,1.125,0.975],"loop_number":"NA","everTouched":null},{"id":"test","shape":"losange","outlier_type":3,"choice":1,"outlierPosition":1,"success":true,"majorityOfMostRegularShapes":true,"rt":5102.2000000002445,"rot1":25,"rot2":-25,"rot3":15,"rot4":-15,"rot5":5,"rot6":-5,"dil1":1.075,"dil2":1.025,"dil3":0.875,"dil4":0.975,"dil5":1.125,"dil6":0.925,"rots":[25,-25,15,-15,5,-5],"dils":[1.075,1.025,0.875,0.975,1.125,0.925],"loop_number":"NA","everTouched":null},{"id":"test","shape":"rustedHinge","outlier_type":0,"choice":0,"outlierPosition":0,"success":true,"majorityOfMostRegularShapes":true,"rt":3785.6000000001513,"rot1":25,"rot2":-5,"rot3":-15,"rot4":5,"rot5":-25,"rot6":15,"dil1":1.075,"dil2":0.875,"dil3":1.125,"dil4":0.975,"dil5":1.025,"dil6":0.925,"rots":[25,-5,-15,5,-25,15],"dils":[1.075,0.875,1.125,0.975,1.025,0.925],"loop_number":"NA","everTouched":null},{"id":"test","shape":"hinge","outlier_type":2,"choice":4,"outlierPosition":4,"success":true,"majorityOfMostRegularShapes":true,"rt":3723.7000000004773,"rot1":-5,"rot2":5,"rot3":25,"rot4":-25,"rot5":15,"rot6":-15,"dil1":1.075,"dil2":0.975,"dil3":0.875,"dil4":0.925,"dil5":1.125,"dil6":1.025,"rots":[-5,5,25,-25,15,-15],"dils":[1.075,0.975,0.875,0.925,1.125,1.025],"loop_number":"NA","everTouched":null},{"id":"test","shape":"square","outlier_type":1,"choice":4,"outlierPosition":4,"success":true,"majorityOfMostRegularShapes":true,"rt":2079.9000000006636,"rot1":-15,"rot2":15,"rot3":25,"rot4":5,"rot5":-25,"rot6":-5,"dil1":1.075,"dil2":0.975,"dil3":1.125,"dil4":0.925,"dil5":0.875,"dil6":1.025,"rots":[-15,15,25,5,-25,-5],"dils":[1.075,0.975,1.125,0.925,0.875,1.025],"loop_number":"NA","everTouched":null},{"id":"test","shape":"trapezoid","outlier_type":2,"choice":2,"outlierPosition":2,"success":true,"majorityOfMostRegularShapes":true,"rt":3919.700000000361,"rot1":25,"rot2":-15,"rot3":-5,"rot4":15,"rot5":5,"rot6":-25,"dil1":1.125,"dil2":1.025,"dil3":1.075,"dil4":0.925,"dil5":0.975,"dil6":0.875,"rots":[25,-15,-5,15,5,-25],"dils":[1.125,1.025,1.075,0.925,0.975,0.875],"loop_number":"NA","everTouched":null},{"id":"test","shape":"rightKite","outlier_type":3,"choice":2,"outlierPosition":2,"success":true,"majorityOfMostRegularShapes":true,"rt":6996.500000000175,"rot1":-15,"rot2":5,"rot3":15,"rot4":-5,"rot5":25,"rot6":-25,"dil1":1.025,"dil2":1.075,"dil3":1.125,"dil4":0.875,"dil5":0.925,"dil6":0.975,"rots":[-15,5,15,-5,25,-25],"dils":[1.025,1.075,1.125,0.875,0.925,0.975],"loop_number":"NA","everTouched":null},{"id":"test","shape":"losange","outlier_type":2,"choice":4,"outlierPosition":4,"success":true,"majorityOfMostRegularShapes":true,"rt":3520.300000000163,"rot1":5,"rot2":-25,"rot3":-15,"rot4":-5,"rot5":15,"rot6":25,"dil1":1.125,"dil2":0.875,"dil3":1.025,"dil4":0.975,"dil5":0.925,"dil6":1.075,"rots":[5,-25,-15,-5,15,25],"dils":[1.125,0.875,1.025,0.975,0.925,1.075],"loop_number":"NA","everTouched":null},{"id":"test","shape":"trapezoid","outlier_type":3,"choice":3,"outlierPosition":3,"success":true,"majorityOfMostRegularShapes":true,"rt":4102.000000000757,"rot1":5,"rot2":-25,"rot3":-5,"rot4":25,"rot5":15,"rot6":-15,"dil1":0.875,"dil2":0.975,"dil3":1.125,"dil4":1.075,"dil5":1.025,"dil6":0.925,"rots":[5,-25,-5,25,15,-15],"dils":[0.875,0.975,1.125,1.075,1.025,0.925],"loop_number":"NA","everTouched":null},{"id":"test","shape":"kite","outlier_type":2,"choice":2,"outlierPosition":2,"success":true,"majorityOfMostRegularShapes":true,"rt":3576.1000000002678,"rot1":5,"rot2":-15,"rot3":-25,"rot4":15,"rot5":25,"rot6":-5,"dil1":0.925,"dil2":1.075,"dil3":0.875,"dil4":1.125,"dil5":0.975,"dil6":1.025,"rots":[5,-15,-25,15,25,-5],"dils":[0.925,1.075,0.875,1.125,0.975,1.025],"loop_number":"NA","everTouched":null},{"id":"test","shape":"isoTrapezoid","outlier_type":0,"choice":2,"outlierPosition":2,"success":true,"majorityOfMostRegularShapes":true,"rt":4984.599999999802,"rot1":5,"rot2":-25,"rot3":15,"rot4":-15,"rot5":-5,"rot6":25,"dil1":0.975,"dil2":0.925,"dil3":1.025,"dil4":1.125,"dil5":0.875,"dil6":1.075,"rots":[5,-25,15,-15,-5,25],"dils":[0.975,0.925,1.025,1.125,0.875,1.075],"loop_number":"NA","everTouched":null},{"id":"test","shape":"rustedHinge","outlier_type":3,"choice":3,"outlierPosition":3,"success":true,"majorityOfMostRegularShapes":true,"rt":3706.100000000326,"rot1":25,"rot2":15,"rot3":-5,"rot4":5,"rot5":-15,"rot6":-25,"dil1":1.125,"dil2":0.925,"dil3":0.975,"dil4":0.875,"dil5":1.075,"dil6":1.025,"rots":[25,15,-5,5,-15,-25],"dils":[1.125,0.925,0.975,0.875,1.075,1.025],"loop_number":"NA","everTouched":null},{"id":"test","shape":"losange","outlier_type":1,"choice":4,"outlierPosition":4,"success":true,"majorityOfMostRegularShapes":true,"rt":2702.29999999993,"rot1":-25,"rot2":-15,"rot3":15,"rot4":-5,"rot5":5,"rot6":25,"dil1":1.125,"dil2":1.075,"dil3":0.975,"dil4":0.875,"dil5":0.925,"dil6":1.025,"rots":[-25,-15,15,-5,5,25],"dils":[1.125,1.075,0.975,0.875,0.925,1.025],"loop_number":"NA","everTouched":null}],"desiredDistance":0.3,"trial_type":"oddball-grid","trial_index":3,"time_elapsed":372638,"internal_node_id":"0.0-3.0","ID":"5u41b52w4f"},{"success":true,"trial_type":"fullscreen","trial_index":4,"time_elapsed":378696,"internal_node_id":"0.0-4.0","ID":"5u41b52w4f"}]