[{"success":true,"trial_type":"fullscreen","trial_index":0,"time_elapsed":20958,"internal_node_id":"0.0-0.0","ID":"ot3ybxeu1z"},{"results":[{"id":"train-images","shape":"4","outlier_type":"NA","choice":3,"outlierPosition":3,"success":true,"majorityOfMostRegularShapes":"NA","rt":8657.199999999648,"rot1":-25,"rot2":15,"rot3":-15,"rot4":25,"rot5":-5,"rot6":5,"dil1":0.975,"dil2":0.875,"dil3":1.075,"dil4":0.925,"dil5":1.025,"dil6":1.125,"rots":[-25,15,-15,25,-5,5],"dils":[0.975,0.875,1.075,0.925,1.025,1.125],"loop_number":1,"everTouched":null},{"id":"train-images","shape":"2","outlier_type":"NA","choice":0,"outlierPosition":0,"success":true,"majorityOfMostRegularShapes":"NA","rt":2071.6000000011263,"rot1":-5,"rot2":25,"rot3":-15,"rot4":5,"rot5":-25,"rot6":15,"dil1":1.075,"dil2":1.025,"dil3":1.125,"dil4":0.875,"dil5":0.975,"dil6":0.925,"rots":[-5,25,-15,5,-25,15],"dils":[1.075,1.025,1.125,0.875,0.975,0.925],"loop_number":1,"everTouched":null},{"id":"train-images","shape":"6","outlier_type":"NA","choice":5,"outlierPosition":5,"success":true,"majorityOfMostRegularShapes":"NA","rt":1073.100000001432,"rot1":25,"rot2":5,"rot3":-25,"rot4":15,"rot5":-5,"rot6":-15,"dil1":1.025,"dil2":0.975,"dil3":0.875,"dil4":1.125,"dil5":0.925,"dil6":1.075,"rots":[25,5,-25,15,-5,-15],"dils":[1.025,0.975,0.875,1.125,0.925,1.075],"loop_number":1,"everTouched":null},{"id":"train-images","shape":"1","outlier_type":"NA","choice":2,"outlierPosition":2,"success":true,"majorityOfMostRegularShapes":"NA","rt":774.0000000012515,"rot1":-5,"rot2":25,"rot3":15,"rot4":-25,"rot5":-15,"rot6":5,"dil1":0.975,"dil2":0.925,"dil3":1.075,"dil4":1.025,"dil5":1.125,"dil6":0.875,"rots":[-5,25,15,-25,-15,5],"dils":[0.975,0.925,1.075,1.025,1.125,0.875],"loop_number":1,"everTouched":null},{"id":"train-images","shape":"7","outlier_type":"NA","choice":0,"outlierPosition":0,"success":true,"majorityOfMostRegularShapes":"NA","rt":905.6999999993423,"rot1":15,"rot2":-5,"rot3":-15,"rot4":-25,"rot5":25,"rot6":5,"dil1":1.125,"dil2":0.975,"dil3":1.025,"dil4":0.875,"dil5":1.075,"dil6":0.925,"rots":[15,-5,-15,-25,25,5],"dils":[1.125,0.975,1.025,0.875,1.075,0.925],"loop_number":1,"everTouched":null},{"id":"train-images","shape":"9","outlier_type":"NA","choice":2,"outlierPosition":2,"success":true,"majorityOfMostRegularShapes":"NA","rt":793.9000000005763,"rot1":-15,"rot2":25,"rot3":15,"rot4":-25,"rot5":-5,"rot6":5,"dil1":0.975,"dil2":1.075,"dil3":1.125,"dil4":0.925,"dil5":1.025,"dil6":0.875,"rots":[-15,25,15,-25,-5,5],"dils":[0.975,1.075,1.125,0.925,1.025,0.875],"loop_number":1,"everTouched":null},{"id":"train-images","shape":"10","outlier_type":"NA","choice":2,"outlierPosition":2,"success":true,"majorityOfMostRegularShapes":"NA","rt":782.6000000004569,"rot1":5,"rot2":-5,"rot3":25,"rot4":-25,"rot5":15,"rot6":-15,"dil1":1.125,"dil2":0.925,"dil3":1.075,"dil4":1.025,"dil5":0.975,"dil6":0.875,"rots":[5,-5,25,-25,15,-15],"dils":[1.125,0.925,1.075,1.025,0.975,0.875],"loop_number":1,"everTouched":null},{"id":"train-images","shape":"3","outlier_type":"NA","choice":3,"outlierPosition":3,"success":true,"majorityOfMostRegularShapes":"NA","rt":873.0000000014115,"rot1":-5,"rot2":-15,"rot3":5,"rot4":-25,"rot5":15,"rot6":25,"dil1":1.125,"dil2":0.925,"dil3":0.875,"dil4":1.025,"dil5":1.075,"dil6":0.975,"rots":[-5,-15,5,-25,15,25],"dils":[1.125,0.925,0.875,1.025,1.075,0.975],"loop_number":1,"everTouched":null},{"id":"train-images","shape":"8","outlier_type":"NA","choice":0,"outlierPosition":0,"success":true,"majorityOfMostRegularShapes":"NA","rt":831.0999999994237,"rot1":25,"rot2":-25,"rot3":15,"rot4":-5,"rot5":-15,"rot6":5,"dil1":0.975,"dil2":1.025,"dil3":0.875,"dil4":1.075,"dil5":1.125,"dil6":0.925,"rots":[25,-25,15,-5,-15,5],"dils":[0.975,1.025,0.875,1.075,1.125,0.925],"loop_number":1,"everTouched":null},{"id":"train-images","shape":"5","outlier_type":"NA","choice":5,"outlierPosition":5,"success":true,"majorityOfMostRegularShapes":"NA","rt":673.6999999993714,"rot1":15,"rot2":5,"rot3":-15,"rot4":-25,"rot5":-5,"rot6":25,"dil1":1.125,"dil2":1.075,"dil3":0.925,"dil4":0.975,"dil5":0.875,"dil6":1.025,"rots":[15,5,-15,-25,-5,25],"dils":[1.125,1.075,0.925,0.975,0.875,1.025],"loop_number":1,"everTouched":null}],"trial_type":"oddball-grid-image","trial_index":1,"time_elapsed":84629,"internal_node_id":"0.0-1.0","ID":"ot3ybxeu1z"},{"results":[{"id":"train","shape":null,"outlier_type":null,"choice":2,"outlierPosition":2,"success":true,"majorityOfMostRegularShapes":null,"rt":775.7000000001426,"rot1":-25,"rot2":5,"rot3":-5,"rot4":-15,"rot5":15,"rot6":25,"dil1":0.875,"dil2":1.125,"dil3":1.075,"dil4":0.925,"dil5":1.025,"dil6":0.975,"rots":[-25,5,-5,-15,15,25],"dils":[0.875,1.125,1.075,0.925,1.025,0.975],"loop_number":1,"everTouched":null},{"id":"train","shape":null,"outlier_type":null,"choice":3,"outlierPosition":3,"success":true,"majorityOfMostRegularShapes":null,"rt":1108.0000000001746,"rot1":-25,"rot2":-5,"rot3":-15,"rot4":5,"rot5":25,"rot6":15,"dil1":1.025,"dil2":1.125,"dil3":0.975,"dil4":1.075,"dil5":0.875,"dil6":0.925,"rots":[-25,-5,-15,5,25,15],"dils":[1.025,1.125,0.975,1.075,0.875,0.925],"loop_number":1,"everTouched":null},{"id":"train","shape":null,"outlier_type":null,"choice":4,"outlierPosition":4,"success":true,"majorityOfMostRegularShapes":null,"rt":930.000000000291,"rot1":25,"rot2":-15,"rot3":-5,"rot4":5,"rot5":-25,"rot6":15,"dil1":0.875,"dil2":0.925,"dil3":0.975,"dil4":1.125,"dil5":1.025,"dil6":1.075,"rots":[25,-15,-5,5,-25,15],"dils":[0.875,0.925,0.975,1.125,1.025,1.075],"loop_number":1,"everTouched":null},{"id":"train","shape":null,"outlier_type":null,"choice":1,"outlierPosition":1,"success":true,"majorityOfMostRegularShapes":null,"rt":732.5999999993655,"rot1":25,"rot2":-15,"rot3":5,"rot4":-25,"rot5":-5,"rot6":15,"dil1":0.875,"dil2":1.075,"dil3":1.125,"dil4":0.975,"dil5":1.025,"dil6":0.925,"rots":[25,-15,5,-25,-5,15],"dils":[0.875,1.075,1.125,0.975,1.025,0.925],"loop_number":1,"everTouched":null},{"id":"train","shape":null,"outlier_type":null,"choice":0,"outlierPosition":0,"success":true,"majorityOfMostRegularShapes":null,"rt":888.8999999999214,"rot1":-25,"rot2":-15,"rot3":15,"rot4":25,"rot5":5,"rot6":-5,"dil1":1.025,"dil2":0.925,"dil3":0.975,"dil4":0.875,"dil5":1.125,"dil6":1.075,"rots":[-25,-15,15,25,5,-5],"dils":[1.025,0.925,0.975,0.875,1.125,1.075],"loop_number":1,"everTouched":null},{"id":"train","shape":null,"outlier_type":null,"choice":4,"outlierPosition":4,"success":true,"majorityOfMostRegularShapes":null,"rt":1209.500000000844,"rot1":25,"rot2":-25,"rot3":-15,"rot4":5,"rot5":-5,"rot6":15,"dil1":0.875,"dil2":0.975,"dil3":1.075,"dil4":1.025,"dil5":0.925,"dil6":1.125,"rots":[25,-25,-15,5,-5,15],"dils":[0.875,0.975,1.075,1.025,0.925,1.125],"loop_number":1,"everTouched":null}],"desiredDistance":0.3,"trial_type":"oddball-grid-easy","trial_index":2,"time_elapsed":99273,"internal_node_id":"0.0-2.0","ID":"ot3ybxeu1z"},{"results":[{"id":"test","shape":"parallelogram","outlier_type":2,"choice":2,"outlierPosition":2,"success":true,"majorityOfMostRegularShapes":true,"rt":2276.900000000751,"rot1":-25,"rot2":-5,"rot3":-15,"rot4":25,"rot5":5,"rot6":15,"dil1":1.125,"dil2":0.975,"dil3":0.875,"dil4":1.075,"dil5":0.925,"dil6":1.025,"rots":[-25,-5,-15,25,5,15],"dils":[1.125,0.975,0.875,1.075,0.925,1.025],"loop_number":"NA","everTouched":null},{"id":"test","shape":"hinge","outlier_type":1,"choice":2,"outlierPosition":5,"success":false,"majorityOfMostRegularShapes":true,"rt":5368.499999998676,"rot1":15,"rot2":25,"rot3":-5,"rot4":-15,"rot5":5,"rot6":-25,"dil1":1.075,"dil2":0.925,"dil3":0.875,"dil4":1.025,"dil5":0.975,"dil6":1.125,"rots":[15,25,-5,-15,5,-25],"dils":[1.075,0.925,0.875,1.025,0.975,1.125],"loop_number":"NA","everTouched":null},{"id":"test","shape":"rustedHinge","outlier_type":2,"choice":1,"outlierPosition":3,"success":false,"majorityOfMostRegularShapes":true,"rt":10358.700000000681,"rot1":-15,"rot2":-25,"rot3":5,"rot4":-5,"rot5":25,"rot6":15,"dil1":1.125,"dil2":0.875,"dil3":1.075,"dil4":0.975,"dil5":0.925,"dil6":1.025,"rots":[-15,-25,5,-5,25,15],"dils":[1.125,0.875,1.075,0.975,0.925,1.025],"loop_number":"NA","everTouched":null},{"id":"test","shape":"hinge","outlier_type":3,"choice":2,"outlierPosition":2,"success":true,"majorityOfMostRegularShapes":true,"rt":7037.899999999354,"rot1":15,"rot2":5,"rot3":-15,"rot4":-25,"rot5":25,"rot6":-5,"dil1":0.925,"dil2":1.075,"dil3":1.125,"dil4":1.025,"dil5":0.875,"dil6":0.975,"rots":[15,5,-15,-25,25,-5],"dils":[0.925,1.075,1.125,1.025,0.875,0.975],"loop_number":"NA","everTouched":null},{"id":"test","shape":"losange","outlier_type":0,"choice":1,"outlierPosition":1,"success":true,"majorityOfMostRegularShapes":true,"rt":5511.800000000221,"rot1":5,"rot2":-15,"rot3":-5,"rot4":-25,"rot5":15,"rot6":25,"dil1":0.875,"dil2":1.125,"dil3":0.975,"dil4":1.075,"dil5":1.025,"dil6":0.925,"rots":[5,-15,-5,-25,15,25],"dils":[0.875,1.125,0.975,1.075,1.025,0.925],"loop_number":"NA","everTouched":null},{"id":"test","shape":"parallelogram","outlier_type":3,"choice":2,"outlierPosition":2,"success":true,"majorityOfMostRegularShapes":true,"rt":3344.1000000002387,"rot1":-25,"rot2":-15,"rot3":25,"rot4":15,"rot5":5,"rot6":-5,"dil1":0.925,"dil2":1.025,"dil3":1.125,"dil4":0.975,"dil5":1.075,"dil6":0.875,"rots":[-25,-15,25,15,5,-5],"dils":[0.925,1.025,1.125,0.975,1.075,0.875],"loop_number":"NA","everTouched":null},{"id":"test","shape":"isoTrapezoid","outlier_type":0,"choice":2,"outlierPosition":2,"success":true,"majorityOfMostRegularShapes":true,"rt":2240.4999999998836,"rot1":25,"rot2":15,"rot3":-25,"rot4":5,"rot5":-15,"rot6":-5,"dil1":1.025,"dil2":0.925,"dil3":1.125,"dil4":0.975,"dil5":1.075,"dil6":0.875,"rots":[25,15,-25,5,-15,-5],"dils":[1.025,0.925,1.125,0.975,1.075,0.875],"loop_number":"NA","everTouched":null},{"id":"test","shape":"random","outlier_type":1,"choice":0,"outlierPosition":3,"success":false,"majorityOfMostRegularShapes":true,"rt":1327.1000000004424,"rot1":25,"rot2":-5,"rot3":5,"rot4":-15,"rot5":15,"rot6":-25,"dil1":0.975,"dil2":1.075,"dil3":0.925,"dil4":0.875,"dil5":1.025,"dil6":1.125,"rots":[25,-5,5,-15,15,-25],"dils":[0.975,1.075,0.925,0.875,1.025,1.125],"loop_number":"NA","everTouched":null},{"id":"test","shape":"rustedHinge","outlier_type":3,"choice":2,"outlierPosition":2,"success":true,"majorityOfMostRegularShapes":true,"rt":4408.799999999232,"rot1":5,"rot2":-5,"rot3":-25,"rot4":25,"rot5":15,"rot6":-15,"dil1":1.125,"dil2":0.925,"dil3":0.975,"dil4":0.875,"dil5":1.025,"dil6":1.075,"rots":[5,-5,-25,25,15,-15],"dils":[1.125,0.925,0.975,0.875,1.025,1.075],"loop_number":"NA","everTouched":null},{"id":"test","shape":"kite","outlier_type":1,"choice":1,"outlierPosition":1,"success":true,"majorityOfMostRegularShapes":true,"rt":2919.399999998859,"rot1":-15,"rot2":25,"rot3":-5,"rot4":5,"rot5":15,"rot6":-25,"dil1":1.025,"dil2":1.075,"dil3":1.125,"dil4":0.875,"dil5":0.925,"dil6":0.975,"rots":[-15,25,-5,5,15,-25],"dils":[1.025,1.075,1.125,0.875,0.925,0.975],"loop_number":"NA","everTouched":null},{"id":"test","shape":"losange","outlier_type":3,"choice":2,"outlierPosition":2,"success":true,"majorityOfMostRegularShapes":true,"rt":2568.4000000001106,"rot1":-15,"rot2":5,"rot3":15,"rot4":-25,"rot5":25,"rot6":-5,"dil1":1.075,"dil2":0.975,"dil3":1.125,"dil4":1.025,"dil5":0.925,"dil6":0.875,"rots":[-15,5,15,-25,25,-5],"dils":[1.075,0.975,1.125,1.025,0.925,0.875],"loop_number":"NA","everTouched":null},{"id":"test","shape":"square","outlier_type":0,"choice":1,"outlierPosition":1,"success":true,"majorityOfMostRegularShapes":true,"rt":2629.100000000093,"rot1":-5,"rot2":-15,"rot3":25,"rot4":5,"rot5":15,"rot6":-25,"dil1":0.875,"dil2":0.925,"dil3":1.125,"dil4":0.975,"dil5":1.025,"dil6":1.075,"rots":[-5,-15,25,5,15,-25],"dils":[0.875,0.925,1.125,0.975,1.025,1.075],"loop_number":"NA","everTouched":null},{"id":"test","shape":"rightKite","outlier_type":2,"choice":0,"outlierPosition":0,"success":true,"majorityOfMostRegularShapes":true,"rt":2316.2000000011176,"rot1":-25,"rot2":-5,"rot3":15,"rot4":25,"rot5":5,"rot6":-15,"dil1":1.125,"dil2":0.975,"dil3":1.025,"dil4":0.875,"dil5":0.925,"dil6":1.075,"rots":[-25,-5,15,25,5,-15],"dils":[1.125,0.975,1.025,0.875,0.925,1.075],"loop_number":"NA","everTouched":null},{"id":"test","shape":"random","outlier_type":0,"choice":4,"outlierPosition":5,"success":false,"majorityOfMostRegularShapes":true,"rt":4197.700000000623,"rot1":-5,"rot2":25,"rot3":5,"rot4":-15,"rot5":-25,"rot6":15,"dil1":1.025,"dil2":1.125,"dil3":1.075,"dil4":0.975,"dil5":0.925,"dil6":0.875,"rots":[-5,25,5,-15,-25,15],"dils":[1.025,1.125,1.075,0.975,0.925,0.875],"loop_number":"NA","everTouched":null},{"id":"test","shape":"square","outlier_type":2,"choice":0,"outlierPosition":0,"success":true,"majorityOfMostRegularShapes":true,"rt":3324.6999999991967,"rot1":15,"rot2":-15,"rot3":5,"rot4":-5,"rot5":25,"rot6":-25,"dil1":0.875,"dil2":1.025,"dil3":1.075,"dil4":0.975,"dil5":1.125,"dil6":0.925,"rots":[15,-15,5,-5,25,-25],"dils":[0.875,1.025,1.075,0.975,1.125,0.925],"loop_number":"NA","everTouched":null},{"id":"test","shape":"trapezoid","outlier_type":3,"choice":5,"outlierPosition":5,"success":true,"majorityOfMostRegularShapes":true,"rt":6674.799999998882,"rot1":-25,"rot2":-15,"rot3":5,"rot4":-5,"rot5":25,"rot6":15,"dil1":0.925,"dil2":1.025,"dil3":0.875,"dil4":1.125,"dil5":1.075,"dil6":0.975,"rots":[-25,-15,5,-5,25,15],"dils":[0.925,1.025,0.875,1.125,1.075,0.975],"loop_number":"NA","everTouched":null},{"id":"test","shape":"parallelogram","outlier_type":0,"choice":5,"outlierPosition":5,"success":true,"majorityOfMostRegularShapes":true,"rt":3298.2000000010594,"rot1":15,"rot2":-25,"rot3":25,"rot4":5,"rot5":-15,"rot6":-5,"dil1":1.125,"dil2":0.875,"dil3":0.925,"dil4":1.025,"dil5":1.075,"dil6":0.975,"rots":[15,-25,25,5,-15,-5],"dils":[1.125,0.875,0.925,1.025,1.075,0.975],"loop_number":"NA","everTouched":null},{"id":"test","shape":"trapezoid","outlier_type":2,"choice":4,"outlierPosition":4,"success":true,"majorityOfMostRegularShapes":true,"rt":6407.90000000014,"rot1":5,"rot2":15,"rot3":-15,"rot4":25,"rot5":-25,"rot6":-5,"dil1":1.075,"dil2":0.975,"dil3":0.925,"dil4":0.875,"dil5":1.025,"dil6":1.125,"rots":[5,15,-15,25,-25,-5],"dils":[1.075,0.975,0.925,0.875,1.025,1.125],"loop_number":"NA","everTouched":null},{"id":"test","shape":"rectangle","outlier_type":1,"choice":1,"outlierPosition":1,"success":true,"majorityOfMostRegularShapes":true,"rt":2661.5000000001455,"rot1":-5,"rot2":5,"rot3":15,"rot4":-25,"rot5":25,"rot6":-15,"dil1":0.925,"dil2":0.975,"dil3":0.875,"dil4":1.075,"dil5":1.125,"dil6":1.025,"rots":[-5,5,15,-25,25,-15],"dils":[0.925,0.975,0.875,1.075,1.125,1.025],"loop_number":"NA","everTouched":null},{"id":"test","shape":"rightKite","outlier_type":0,"choice":4,"outlierPosition":5,"success":false,"majorityOfMostRegularShapes":true,"rt":6001.400000001013,"rot1":-5,"rot2":15,"rot3":5,"rot4":25,"rot5":-25,"rot6":-15,"dil1":1.025,"dil2":0.875,"dil3":1.125,"dil4":1.075,"dil5":0.925,"dil6":0.975,"rots":[-5,15,5,25,-25,-15],"dils":[1.025,0.875,1.125,1.075,0.925,0.975],"loop_number":"NA","everTouched":null},{"id":"test","shape":"trapezoid","outlier_type":1,"choice":2,"outlierPosition":2,"success":true,"majorityOfMostRegularShapes":true,"rt":1392.59999999922,"rot1":15,"rot2":-15,"rot3":5,"rot4":25,"rot5":-25,"rot6":-5,"dil1":1.025,"dil2":0.875,"dil3":1.125,"dil4":0.975,"dil5":1.075,"dil6":0.925,"rots":[15,-15,5,25,-25,-5],"dils":[1.025,0.875,1.125,0.975,1.075,0.925],"loop_number":"NA","everTouched":null},{"id":"test","shape":"hinge","outlier_type":0,"choice":0,"outlierPosition":0,"success":true,"majorityOfMostRegularShapes":true,"rt":4753.600000000006,"rot1":15,"rot2":-5,"rot3":5,"rot4":25,"rot5":-25,"rot6":-15,"dil1":0.875,"dil2":1.125,"dil3":0.975,"dil4":0.925,"dil5":1.075,"dil6":1.025,"rots":[15,-5,5,25,-25,-15],"dils":[0.875,1.125,0.975,0.925,1.075,1.025],"loop_number":"NA","everTouched":null},{"id":"test","shape":"kite","outlier_type":2,"choice":3,"outlierPosition":3,"success":true,"majorityOfMostRegularShapes":true,"rt":2214.1999999985273,"rot1":15,"rot2":25,"rot3":-15,"rot4":-5,"rot5":-25,"rot6":5,"dil1":0.975,"dil2":1.075,"dil3":0.875,"dil4":0.925,"dil5":1.125,"dil6":1.025,"rots":[15,25,-15,-5,-25,5],"dils":[0.975,1.075,0.875,0.925,1.125,1.025],"loop_number":"NA","everTouched":null},{"id":"test","shape":"hinge","outlier_type":2,"choice":2,"outlierPosition":2,"success":true,"majorityOfMostRegularShapes":true,"rt":3913.8000000002503,"rot1":5,"rot2":25,"rot3":-15,"rot4":15,"rot5":-5,"rot6":-25,"dil1":0.925,"dil2":1.125,"dil3":0.975,"dil4":1.025,"dil5":0.875,"dil6":1.075,"rots":[5,25,-15,15,-5,-25],"dils":[0.925,1.125,0.975,1.025,0.875,1.075],"loop_number":"NA","everTouched":null},{"id":"test","shape":"rightKite","outlier_type":1,"choice":0,"outlierPosition":0,"success":true,"majorityOfMostRegularShapes":true,"rt":5008.399999998801,"rot1":-25,"rot2":5,"rot3":25,"rot4":-15,"rot5":15,"rot6":-5,"dil1":0.975,"dil2":0.875,"dil3":1.125,"dil4":1.025,"dil5":1.075,"dil6":0.925,"rots":[-25,5,25,-15,15,-5],"dils":[0.975,0.875,1.125,1.025,1.075,0.925],"loop_number":"NA","everTouched":null},{"id":"test","shape":"isoTrapezoid","outlier_type":3,"choice":4,"outlierPosition":4,"success":true,"majorityOfMostRegularShapes":true,"rt":2258.59999999922,"rot1":-25,"rot2":15,"rot3":25,"rot4":-15,"rot5":5,"rot6":-5,"dil1":0.975,"dil2":0.925,"dil3":0.875,"dil4":1.125,"dil5":1.025,"dil6":1.075,"rots":[-25,15,25,-15,5,-5],"dils":[0.975,0.925,0.875,1.125,1.025,1.075],"loop_number":"NA","everTouched":null},{"id":"test","shape":"rustedHinge","outlier_type":1,"choice":1,"outlierPosition":1,"success":true,"majorityOfMostRegularShapes":true,"rt":3694.899999998597,"rot1":-25,"rot2":5,"rot3":-15,"rot4":15,"rot5":-5,"rot6":25,"dil1":0.975,"dil2":0.875,"dil3":1.025,"dil4":0.925,"dil5":1.125,"dil6":1.075,"rots":[-25,5,-15,15,-5,25],"dils":[0.975,0.875,1.025,0.925,1.125,1.075],"loop_number":"NA","everTouched":null},{"id":"test","shape":"rectangle","outlier_type":3,"choice":5,"outlierPosition":1,"success":false,"majorityOfMostRegularShapes":true,"rt":1250.2999999996973,"rot1":-5,"rot2":5,"rot3":25,"rot4":-15,"rot5":15,"rot6":-25,"dil1":0.975,"dil2":0.925,"dil3":1.075,"dil4":1.125,"dil5":1.025,"dil6":0.875,"rots":[-5,5,25,-15,15,-25],"dils":[0.975,0.925,1.075,1.125,1.025,0.875],"loop_number":"NA","everTouched":null},{"id":"test","shape":"trapezoid","outlier_type":0,"choice":4,"outlierPosition":4,"success":true,"majorityOfMostRegularShapes":true,"rt":2268.2999999997264,"rot1":5,"rot2":-5,"rot3":-15,"rot4":-25,"rot5":25,"rot6":15,"dil1":1.125,"dil2":0.975,"dil3":0.875,"dil4":1.025,"dil5":0.925,"dil6":1.075,"rots":[5,-5,-15,-25,25,15],"dils":[1.125,0.975,0.875,1.025,0.925,1.075],"loop_number":"NA","everTouched":null},{"id":"test","shape":"parallelogram","outlier_type":1,"choice":3,"outlierPosition":3,"success":true,"majorityOfMostRegularShapes":true,"rt":2177.2999999994063,"rot1":25,"rot2":5,"rot3":-5,"rot4":-15,"rot5":-25,"rot6":15,"dil1":1.075,"dil2":1.125,"dil3":1.025,"dil4":0.975,"dil5":0.925,"dil6":0.875,"rots":[25,5,-5,-15,-25,15],"dils":[1.075,1.125,1.025,0.975,0.925,0.875],"loop_number":"NA","everTouched":null},{"id":"test","shape":"isoTrapezoid","outlier_type":2,"choice":3,"outlierPosition":3,"success":true,"majorityOfMostRegularShapes":true,"rt":1998.6000000007916,"rot1":-15,"rot2":25,"rot3":15,"rot4":-5,"rot5":5,"rot6":-25,"dil1":0.875,"dil2":0.925,"dil3":1.025,"dil4":1.075,"dil5":1.125,"dil6":0.975,"rots":[-15,25,15,-5,5,-25],"dils":[0.875,0.925,1.025,1.075,1.125,0.975],"loop_number":"NA","everTouched":null},{"id":"test","shape":"kite","outlier_type":0,"choice":3,"outlierPosition":3,"success":true,"majorityOfMostRegularShapes":true,"rt":5932.600000000093,"rot1":-25,"rot2":5,"rot3":25,"rot4":-15,"rot5":-5,"rot6":15,"dil1":1.125,"dil2":0.925,"dil3":0.875,"dil4":1.075,"dil5":0.975,"dil6":1.025,"rots":[-25,5,25,-15,-5,15],"dils":[1.125,0.925,0.875,1.075,0.975,1.025],"loop_number":"NA","everTouched":null},{"id":"test","shape":"random","outlier_type":3,"choice":3,"outlierPosition":3,"success":true,"majorityOfMostRegularShapes":true,"rt":4290.30000000057,"rot1":25,"rot2":-15,"rot3":15,"rot4":5,"rot5":-5,"rot6":-25,"dil1":1.125,"dil2":0.925,"dil3":1.075,"dil4":0.975,"dil5":0.875,"dil6":1.025,"rots":[25,-15,15,5,-5,-25],"dils":[1.125,0.925,1.075,0.975,0.875,1.025],"loop_number":"NA","everTouched":null},{"id":"test","shape":"losange","outlier_type":1,"choice":2,"outlierPosition":2,"success":true,"majorityOfMostRegularShapes":true,"rt":3636.800000000221,"rot1":-15,"rot2":15,"rot3":5,"rot4":25,"rot5":-25,"rot6":-5,"dil1":0.975,"dil2":1.075,"dil3":0.875,"dil4":1.025,"dil5":1.125,"dil6":0.925,"rots":[-15,15,5,25,-25,-5],"dils":[0.975,1.075,0.875,1.025,1.125,0.925],"loop_number":"NA","everTouched":null},{"id":"test","shape":"rectangle","outlier_type":2,"choice":3,"outlierPosition":3,"success":true,"majorityOfMostRegularShapes":true,"rt":1357.6999999986729,"rot1":15,"rot2":5,"rot3":25,"rot4":-25,"rot5":-15,"rot6":-5,"dil1":1.125,"dil2":0.875,"dil3":1.025,"dil4":0.925,"dil5":0.975,"dil6":1.075,"rots":[15,5,25,-25,-15,-5],"dils":[1.125,0.875,1.025,0.925,0.975,1.075],"loop_number":"NA","everTouched":null},{"id":"test","shape":"kite","outlier_type":3,"choice":0,"outlierPosition":0,"success":true,"majorityOfMostRegularShapes":true,"rt":2764.4999999993015,"rot1":25,"rot2":-25,"rot3":5,"rot4":-5,"rot5":15,"rot6":-15,"dil1":1.125,"dil2":1.075,"dil3":0.875,"dil4":1.025,"dil5":0.975,"dil6":0.925,"rots":[25,-25,5,-5,15,-15],"dils":[1.125,1.075,0.875,1.025,0.975,0.925],"loop_number":"NA","everTouched":null},{"id":"test","shape":"isoTrapezoid","outlier_type":1,"choice":0,"outlierPosition":0,"success":true,"majorityOfMostRegularShapes":true,"rt":1918.2000000000698,"rot1":15,"rot2":-25,"rot3":5,"rot4":-5,"rot5":-15,"rot6":25,"dil1":0.875,"dil2":1.125,"dil3":0.925,"dil4":1.075,"dil5":1.025,"dil6":0.975,"rots":[15,-25,5,-5,-15,25],"dils":[0.875,1.125,0.925,1.075,1.025,0.975],"loop_number":"NA","everTouched":null},{"id":"test","shape":"random","outlier_type":2,"choice":5,"outlierPosition":2,"success":false,"majorityOfMostRegularShapes":true,"rt":6605.300000001094,"rot1":-15,"rot2":5,"rot3":15,"rot4":-25,"rot5":-5,"rot6":25,"dil1":0.875,"dil2":1.125,"dil3":1.025,"dil4":0.925,"dil5":0.975,"dil6":1.075,"rots":[-15,5,15,-25,-5,25],"dils":[0.875,1.125,1.025,0.925,0.975,1.075],"loop_number":"NA","everTouched":null},{"id":"test","shape":"rightKite","outlier_type":3,"choice":2,"outlierPosition":2,"success":true,"majorityOfMostRegularShapes":true,"rt":3777.1999999986147,"rot1":15,"rot2":-5,"rot3":25,"rot4":5,"rot5":-25,"rot6":-15,"dil1":0.875,"dil2":1.125,"dil3":0.925,"dil4":1.075,"dil5":1.025,"dil6":0.975,"rots":[15,-5,25,5,-25,-15],"dils":[0.875,1.125,0.925,1.075,1.025,0.975],"loop_number":"NA","everTouched":null},{"id":"test","shape":"rustedHinge","outlier_type":0,"choice":2,"outlierPosition":2,"success":true,"majorityOfMostRegularShapes":true,"rt":7269.5999999996275,"rot1":-15,"rot2":25,"rot3":5,"rot4":15,"rot5":-5,"rot6":-25,"dil1":0.925,"dil2":1.025,"dil3":1.075,"dil4":1.125,"dil5":0.875,"dil6":0.975,"rots":[-15,25,5,15,-5,-25],"dils":[0.925,1.025,1.075,1.125,0.875,0.975],"loop_number":"NA","everTouched":null},{"id":"test","shape":"square","outlier_type":1,"choice":0,"outlierPosition":0,"success":true,"majorityOfMostRegularShapes":true,"rt":1669.90000000078,"rot1":-25,"rot2":-15,"rot3":15,"rot4":25,"rot5":-5,"rot6":5,"dil1":0.975,"dil2":1.025,"dil3":0.875,"dil4":1.075,"dil5":1.125,"dil6":0.925,"rots":[-25,-15,15,25,-5,5],"dils":[0.975,1.025,0.875,1.075,1.125,0.925],"loop_number":"NA","everTouched":null},{"id":"test","shape":"losange","outlier_type":2,"choice":4,"outlierPosition":4,"success":true,"majorityOfMostRegularShapes":true,"rt":3080.7000000004773,"rot1":25,"rot2":15,"rot3":-25,"rot4":-5,"rot5":-15,"rot6":5,"dil1":1.075,"dil2":1.125,"dil3":1.025,"dil4":0.875,"dil5":0.925,"dil6":0.975,"rots":[25,15,-25,-5,-15,5],"dils":[1.075,1.125,1.025,0.875,0.925,0.975],"loop_number":"NA","everTouched":null},{"id":"test","shape":"square","outlier_type":3,"choice":2,"outlierPosition":2,"success":true,"majorityOfMostRegularShapes":true,"rt":1627.7000000008848,"rot1":5,"rot2":-15,"rot3":-5,"rot4":-25,"rot5":25,"rot6":15,"dil1":1.125,"dil2":0.975,"dil3":0.875,"dil4":0.925,"dil5":1.075,"dil6":1.025,"rots":[5,-15,-5,-25,25,15],"dils":[1.125,0.975,0.875,0.925,1.075,1.025],"loop_number":"NA","everTouched":null},{"id":"test","shape":"rectangle","outlier_type":0,"choice":2,"outlierPosition":2,"success":true,"majorityOfMostRegularShapes":true,"rt":1268.2999999996973,"rot1":-25,"rot2":5,"rot3":-5,"rot4":25,"rot5":15,"rot6":-15,"dil1":1.025,"dil2":1.125,"dil3":0.925,"dil4":1.075,"dil5":0.875,"dil6":0.975,"rots":[-25,5,-5,25,15,-15],"dils":[1.025,1.125,0.925,1.075,0.875,0.975],"loop_number":"NA","everTouched":null}],"desiredDistance":0.3,"trial_type":"oddball-grid","trial_index":3,"time_elapsed":326207,"internal_node_id":"0.0-3.0","ID":"ot3ybxeu1z"},{"success":true,"trial_type":"fullscreen","trial_index":4,"time_elapsed":332416,"internal_node_id":"0.0-4.0","ID":"ot3ybxeu1z"}]