"success","trial_type","trial_index","time_elapsed","internal_node_id","ID","rt","stimulus","button_pressed","button_pressed_text"
"true","fullscreen","0","3294","0.0-0.0","lynauwdgs4","","","",""
"","html-button-response","1","13729","0.0-1.0-0.0","lynauwdgs4","10411.50000000016","<span class=stimul>o</span>","0","Correct"
"","html-button-response","2","14202","0.0-1.0-0.1","lynauwdgs4","468.3999999997468","<span class=stimul>i</span>","0","Correct"
"","html-button-response","3","14594","0.0-1.0-0.2","lynauwdgs4","388.10000000012224","<span class=stimul>bi</span>","0","Correct"
"","html-button-response","4","15180","0.0-1.0-0.3","lynauwdgs4","582.5000000004366","<span class=stimul>ul</span>","0","Correct"
"","html-button-response","5","15654","0.0-1.0-0.4","lynauwdgs4","470.10000000045693","<span class=stimul>til</span>","0","Correct"
"","html-button-response","6","17003","0.0-1.0-0.5","lynauwdgs4","1345.6999999998516","<span class=stimul>ja</span>","0","Correct"
"","html-button-response","7","17424","0.0-1.0-0.6","lynauwdgs4","417.50000000138243","<span class=stimul>ol</span>","0","Correct"
"","html-button-response","8","17831","0.0-1.0-0.7","lynauwdgs4","403.599999999642","<span class=stimul>ata</span>","0","Correct"
"","html-button-response","9","18893","0.0-1.0-0.8","lynauwdgs4","1057.8999999997905","<span class=stimul>dik</span>","0","Correct"
"","html-button-response","10","19398","0.0-1.0-0.9","lynauwdgs4","502.1000000015192","<span class=stimul>nar</span>","0","Correct"
"","html-button-response","11","20458","0.0-1.0-0.10","lynauwdgs4","1056.0999999997875","<span class=stimul>vaf</span>","0","Correct"
"","html-button-response","12","21574","0.0-1.0-0.11","lynauwdgs4","1112.200000001394","<span class=stimul>zou</span>","0","Correct"
"","html-button-response","13","21981","0.0-1.0-0.12","lynauwdgs4","403.80000000004657","<span class=stimul>dul</span>","0","Correct"
"","html-button-response","14","23652","0.0-1.0-0.13","lynauwdgs4","1667.699999999968","<span class=stimul>lévo</span>","0","Correct"
"","html-button-response","15","24164","0.0-1.0-0.14","lynauwdgs4","507.59999999900174","<span class=stimul>tur</span>","0","Correct"
"","html-button-response","16","24653","0.0-1.0-0.15","lynauwdgs4","485.6999999992695","<span class=stimul>veur</span>","0","Correct"
"","html-button-response","17","25126","0.0-1.0-0.16","lynauwdgs4","469.9000000000524","<span class=stimul>col</span>","0","Correct"
"","html-button-response","18","25802","0.0-1.0-0.17","lynauwdgs4","672.8000000002794","<span class=stimul>noil</span>","0","Correct"
"","html-button-response","19","27473","0.0-1.0-0.18","lynauwdgs4","1667.4999999995634","<span class=stimul>opa</span>","0","Correct"
"","html-button-response","20","28120","0.0-1.0-0.19","lynauwdgs4","642.7999999996246","<span class=stimul>jal</span>","0","Correct"
"","html-button-response","21","28665","0.0-1.0-0.20","lynauwdgs4","542.4000000002707","<span class=stimul>neau</span>","0","Correct"
"","html-button-response","22","29286","0.0-1.0-0.21","lynauwdgs4","617.1000000013009","<span class=stimul>timé</span>","0","Correct"
"","html-button-response","23","30884","0.0-1.0-0.22","lynauwdgs4","1594.9999999993452","<span class=stimul>cal</span>","0","Correct"
"","html-button-response","24","31486","0.0-1.0-0.23","lynauwdgs4","598.0999999992491","<span class=stimul>tibe</span>","0","Correct"
"","html-button-response","25","32091","0.0-1.0-0.24","lynauwdgs4","601.4000000013766","<span class=stimul>lupe</span>","0","Correct"
"","html-button-response","26","32825","0.0-1.0-0.25","lynauwdgs4","730.2999999992608","<span class=stimul>pirde</span>","0","Correct"
"","html-button-response","27","33377","0.0-1.0-0.26","lynauwdgs4","549.1999999994732","<span class=stimul>gor</span>","0","Correct"
"","html-button-response","28","34193","0.0-1.0-0.27","lynauwdgs4","812.6000000011118","<span class=stimul>ablir</span>","0","Correct"
"","html-button-response","29","34659","0.0-1.0-0.28","lynauwdgs4","462.8999999986263","<span class=stimul>sar</span>","0","Correct"
"","html-button-response","30","35301","0.0-1.0-0.29","lynauwdgs4","638.2999999987078","<span class=stimul>vaipe</span>","0","Correct"
"","html-button-response","31","36000","0.0-1.0-0.30","lynauwdgs4","695.7000000002154","<span class=stimul>cifale</span>","0","Correct"
"","html-button-response","32","36563","0.0-1.0-0.31","lynauwdgs4","559.2000000015105","<span class=stimul>sapir</span>","0","Correct"
"","html-button-response","33","37052","0.0-1.0-0.32","lynauwdgs4","485.89999999967404","<span class=stimul>vro</span>","0","Correct"
"","html-button-response","34","38061","0.0-1.0-0.33","lynauwdgs4","1005.1999999996042","<span class=stimul>rigne</span>","0","Correct"
"","html-button-response","35","39290","0.0-1.0-0.34","lynauwdgs4","1225.6999999990512","<span class=stimul>rosan</span>","0","Correct"
"","html-button-response","36","39852","0.0-1.0-0.35","lynauwdgs4","558.5000000010041","<span class=stimul>aubre</span>","0","Correct"
"","html-button-response","37","40413","0.0-1.0-0.36","lynauwdgs4","557.8000000004977","<span class=stimul>talpe</span>","0","Correct"
"","html-button-response","38","41002","0.0-1.0-0.37","lynauwdgs4","584.8000000005413","<span class=stimul>gur</span>","0","Correct"
"","html-button-response","39","41595","0.0-1.0-0.38","lynauwdgs4","589.5000000000437","<span class=stimul>louré</span>","0","Correct"
"","html-button-response","40","44196","0.0-1.0-0.39","lynauwdgs4","2597.800000001371","<span class=stimul>ragife</span>","0","Correct"
"","html-button-response","41","44749","0.0-1.0-0.40","lynauwdgs4","548.8999999997759","<span class=stimul>noge</span>","0","Correct"
"","html-button-response","42","45236","0.0-1.0-0.41","lynauwdgs4","483.5000000002765","<span class=stimul>tope</span>","0","Correct"
"","html-button-response","43","45817","0.0-1.0-0.42","lynauwdgs4","576.8000000007305","<span class=stimul>uché</span>","0","Correct"
"","html-button-response","44","46385","0.0-1.0-0.43","lynauwdgs4","565.2000000009139","<span class=stimul>truson</span>","0","Correct"
"","html-button-response","45","48181","0.0-1.0-0.44","lynauwdgs4","1792.5000000013824","<span class=stimul>ranli</span>","0","Correct"
"","html-button-response","46","48694","0.0-1.0-0.45","lynauwdgs4","509.79999999981374","<span class=stimul>tosir</span>","0","Correct"
"","html-button-response","47","49322","0.0-1.0-0.46","lynauwdgs4","623.9999999997963","<span class=stimul>poitade</span>","0","Correct"
"","html-button-response","48","50161","0.0-1.0-0.47","lynauwdgs4","835.3000000006432","<span class=stimul>ousir</span>","0","Correct"
"","html-button-response","49","50820","0.0-1.0-0.48","lynauwdgs4","655.799999998635","<span class=stimul>bapre</span>","0","Correct"
"","html-button-response","50","54835","0.0-1.0-0.49","lynauwdgs4","4011.500000000524","<span class=stimul>gigne</span>","0","Correct"
"","html-button-response","51","55657","0.0-1.0-0.50","lynauwdgs4","817.799999998897","<span class=stimul>gésin</span>","0","Correct"
"","html-button-response","52","56319","0.0-1.0-0.51","lynauwdgs4","658.6000000006607","<span class=stimul>kraulir</span>","0","Correct"
"","html-button-response","53","57027","0.0-1.0-0.52","lynauwdgs4","704.4000000005326","<span class=stimul>cibe</span>","0","Correct"
"","html-button-response","54","57629","0.0-1.0-0.53","lynauwdgs4","598.9000000008673","<span class=stimul>maipe</span>","0","Correct"
"","html-button-response","55","59304","0.0-1.0-0.54","lynauwdgs4","1671.199999998862","<span class=stimul>ligase</span>","0","Correct"
"","html-button-response","56","59939","0.0-1.0-0.55","lynauwdgs4","631.6999999999098","<span class=stimul>gofi</span>","0","Correct"
"","html-button-response","57","60509","0.0-1.0-0.56","lynauwdgs4","566.3000000004104","<span class=stimul>cipre</span>","0","Correct"
"","html-button-response","58","61374","0.0-1.0-0.57","lynauwdgs4","862.2000000013941","<span class=stimul>tasin</span>","0","Correct"
"","html-button-response","59","62151","0.0-1.0-0.58","lynauwdgs4","772.899999999936","<span class=stimul>cipé</span>","0","Correct"
"","html-button-response","60","63297","0.0-1.0-0.59","lynauwdgs4","","","",""
