[{"success":true,"trial_type":"fullscreen","trial_index":0,"time_elapsed":41759,"internal_node_id":"0.0-0.0","ID":"kyr10wlo47"},{"results":[{"id":"train-images","shape":"3","outlier_type":"NA","choice":5,"outlierPosition":5,"success":true,"majorityOfMostRegularShapes":"NA","rt":2185.9000000004016,"rot1":15,"rot2":-15,"rot3":-25,"rot4":25,"rot5":5,"rot6":-5,"dil1":0.875,"dil2":0.975,"dil3":1.075,"dil4":1.025,"dil5":0.925,"dil6":1.125,"rots":[15,-15,-25,25,5,-5],"dils":[0.875,0.975,1.075,1.025,0.925,1.125],"loop_number":1,"everTouched":null},{"id":"train-images","shape":"10","outlier_type":"NA","choice":3,"outlierPosition":3,"success":true,"majorityOfMostRegularShapes":"NA","rt":1537.8000000000611,"rot1":15,"rot2":-25,"rot3":25,"rot4":-5,"rot5":-15,"rot6":5,"dil1":0.975,"dil2":0.875,"dil3":1.025,"dil4":1.125,"dil5":0.925,"dil6":1.075,"rots":[15,-25,25,-5,-15,5],"dils":[0.975,0.875,1.025,1.125,0.925,1.075],"loop_number":1,"everTouched":null},{"id":"train-images","shape":"1","outlier_type":"NA","choice":3,"outlierPosition":3,"success":true,"majorityOfMostRegularShapes":"NA","rt":1256.0999999986961,"rot1":-5,"rot2":15,"rot3":25,"rot4":-15,"rot5":-25,"rot6":5,"dil1":0.875,"dil2":0.925,"dil3":0.975,"dil4":1.025,"dil5":1.125,"dil6":1.075,"rots":[-5,15,25,-15,-25,5],"dils":[0.875,0.925,0.975,1.025,1.125,1.075],"loop_number":1,"everTouched":null},{"id":"train-images","shape":"7","outlier_type":"NA","choice":2,"outlierPosition":2,"success":true,"majorityOfMostRegularShapes":"NA","rt":1101.5000000006694,"rot1":5,"rot2":25,"rot3":-15,"rot4":15,"rot5":-5,"rot6":-25,"dil1":0.875,"dil2":0.925,"dil3":0.975,"dil4":1.075,"dil5":1.025,"dil6":1.125,"rots":[5,25,-15,15,-5,-25],"dils":[0.875,0.925,0.975,1.075,1.025,1.125],"loop_number":1,"everTouched":null},{"id":"train-images","shape":"2","outlier_type":"NA","choice":5,"outlierPosition":5,"success":true,"majorityOfMostRegularShapes":"NA","rt":1305.7000000007974,"rot1":25,"rot2":-25,"rot3":5,"rot4":15,"rot5":-15,"rot6":-5,"dil1":0.925,"dil2":1.025,"dil3":0.875,"dil4":1.075,"dil5":0.975,"dil6":1.125,"rots":[25,-25,5,15,-15,-5],"dils":[0.925,1.025,0.875,1.075,0.975,1.125],"loop_number":1,"everTouched":null},{"id":"train-images","shape":"4","outlier_type":"NA","choice":3,"outlierPosition":3,"success":true,"majorityOfMostRegularShapes":"NA","rt":1408.1000000005588,"rot1":-15,"rot2":25,"rot3":5,"rot4":15,"rot5":-5,"rot6":-25,"dil1":1.125,"dil2":0.875,"dil3":0.925,"dil4":1.025,"dil5":0.975,"dil6":1.075,"rots":[-15,25,5,15,-5,-25],"dils":[1.125,0.875,0.925,1.025,0.975,1.075],"loop_number":1,"everTouched":null},{"id":"train-images","shape":"8","outlier_type":"NA","choice":2,"outlierPosition":2,"success":true,"majorityOfMostRegularShapes":"NA","rt":1300.600000000486,"rot1":-15,"rot2":-25,"rot3":-5,"rot4":25,"rot5":5,"rot6":15,"dil1":0.875,"dil2":1.125,"dil3":0.925,"dil4":0.975,"dil5":1.025,"dil6":1.075,"rots":[-15,-25,-5,25,5,15],"dils":[0.875,1.125,0.925,0.975,1.025,1.075],"loop_number":1,"everTouched":null},{"id":"train-images","shape":"9","outlier_type":"NA","choice":0,"outlierPosition":0,"success":true,"majorityOfMostRegularShapes":"NA","rt":1173.5000000007858,"rot1":-15,"rot2":25,"rot3":-5,"rot4":-25,"rot5":5,"rot6":15,"dil1":1.125,"dil2":0.975,"dil3":0.925,"dil4":1.075,"dil5":1.025,"dil6":0.875,"rots":[-15,25,-5,-25,5,15],"dils":[1.125,0.975,0.925,1.075,1.025,0.875],"loop_number":1,"everTouched":null},{"id":"train-images","shape":"6","outlier_type":"NA","choice":5,"outlierPosition":5,"success":true,"majorityOfMostRegularShapes":"NA","rt":1169.6000000010827,"rot1":-15,"rot2":-25,"rot3":15,"rot4":-5,"rot5":5,"rot6":25,"dil1":1.125,"dil2":0.975,"dil3":1.025,"dil4":0.925,"dil5":1.075,"dil6":0.875,"rots":[-15,-25,15,-5,5,25],"dils":[1.125,0.975,1.025,0.925,1.075,0.875],"loop_number":1,"everTouched":null},{"id":"train-images","shape":"5","outlier_type":"NA","choice":4,"outlierPosition":4,"success":true,"majorityOfMostRegularShapes":"NA","rt":1023.7999999990279,"rot1":5,"rot2":15,"rot3":-5,"rot4":-15,"rot5":-25,"rot6":25,"dil1":1.125,"dil2":1.025,"dil3":1.075,"dil4":0.925,"dil5":0.875,"dil6":0.975,"rots":[5,15,-5,-15,-25,25],"dils":[1.125,1.025,1.075,0.925,0.875,0.975],"loop_number":1,"everTouched":null}],"trial_type":"oddball-grid-image","trial_index":1,"time_elapsed":82543,"internal_node_id":"0.0-1.0","ID":"kyr10wlo47"},{"results":[{"id":"train","shape":null,"outlier_type":null,"choice":5,"outlierPosition":5,"success":true,"majorityOfMostRegularShapes":null,"rt":1015.6000000006316,"rot1":25,"rot2":5,"rot3":15,"rot4":-15,"rot5":-25,"rot6":-5,"dil1":1.125,"dil2":1.025,"dil3":0.975,"dil4":0.875,"dil5":0.925,"dil6":1.075,"rots":[25,5,15,-15,-25,-5],"dils":[1.125,1.025,0.975,0.875,0.925,1.075],"loop_number":1,"everTouched":null},{"id":"train","shape":null,"outlier_type":null,"choice":2,"outlierPosition":2,"success":true,"majorityOfMostRegularShapes":null,"rt":1073.500000000422,"rot1":15,"rot2":5,"rot3":-25,"rot4":25,"rot5":-15,"rot6":-5,"dil1":1.025,"dil2":0.925,"dil3":1.075,"dil4":0.875,"dil5":0.975,"dil6":1.125,"rots":[15,5,-25,25,-15,-5],"dils":[1.025,0.925,1.075,0.875,0.975,1.125],"loop_number":1,"everTouched":null},{"id":"train","shape":null,"outlier_type":null,"choice":0,"outlierPosition":0,"success":true,"majorityOfMostRegularShapes":null,"rt":1159.3999999986409,"rot1":25,"rot2":-25,"rot3":-15,"rot4":-5,"rot5":15,"rot6":5,"dil1":1.075,"dil2":0.975,"dil3":0.925,"dil4":0.875,"dil5":1.025,"dil6":1.125,"rots":[25,-25,-15,-5,15,5],"dils":[1.075,0.975,0.925,0.875,1.025,1.125],"loop_number":1,"everTouched":null},{"id":"train","shape":null,"outlier_type":null,"choice":2,"outlierPosition":2,"success":true,"majorityOfMostRegularShapes":null,"rt":874.4000000006054,"rot1":-5,"rot2":25,"rot3":5,"rot4":-25,"rot5":-15,"rot6":15,"dil1":1.125,"dil2":0.875,"dil3":1.025,"dil4":1.075,"dil5":0.925,"dil6":0.975,"rots":[-5,25,5,-25,-15,15],"dils":[1.125,0.875,1.025,1.075,0.925,0.975],"loop_number":1,"everTouched":null},{"id":"train","shape":null,"outlier_type":null,"choice":3,"outlierPosition":3,"success":true,"majorityOfMostRegularShapes":null,"rt":1021.5000000007421,"rot1":-15,"rot2":15,"rot3":-25,"rot4":5,"rot5":25,"rot6":-5,"dil1":1.025,"dil2":0.975,"dil3":0.925,"dil4":1.075,"dil5":1.125,"dil6":0.875,"rots":[-15,15,-25,5,25,-5],"dils":[1.025,0.975,0.925,1.075,1.125,0.875],"loop_number":1,"everTouched":null},{"id":"train","shape":null,"outlier_type":null,"choice":1,"outlierPosition":1,"success":true,"majorityOfMostRegularShapes":null,"rt":1565.599999999904,"rot1":25,"rot2":-25,"rot3":-5,"rot4":15,"rot5":-15,"rot6":5,"dil1":1.125,"dil2":0.975,"dil3":0.875,"dil4":1.025,"dil5":1.075,"dil6":0.925,"rots":[25,-25,-5,15,-15,5],"dils":[1.125,0.975,0.875,1.025,1.075,0.925],"loop_number":1,"everTouched":null}],"desiredDistance":0.3,"trial_type":"oddball-grid-easy","trial_index":2,"time_elapsed":98332,"internal_node_id":"0.0-2.0","ID":"kyr10wlo47"},{"results":[{"id":"test","shape":"rustedHinge","outlier_type":3,"choice":1,"outlierPosition":1,"success":true,"majorityOfMostRegularShapes":true,"rt":3879.499999999098,"rot1":15,"rot2":5,"rot3":-25,"rot4":-5,"rot5":25,"rot6":-15,"dil1":1.075,"dil2":1.125,"dil3":1.025,"dil4":0.975,"dil5":0.875,"dil6":0.925,"rots":[15,5,-25,-5,25,-15],"dils":[1.075,1.125,1.025,0.975,0.875,0.925],"loop_number":"NA","everTouched":null},{"id":"test","shape":"rightKite","outlier_type":2,"choice":5,"outlierPosition":5,"success":true,"majorityOfMostRegularShapes":true,"rt":12388.699999999517,"rot1":-5,"rot2":15,"rot3":-15,"rot4":-25,"rot5":25,"rot6":5,"dil1":0.975,"dil2":1.125,"dil3":1.025,"dil4":0.925,"dil5":1.075,"dil6":0.875,"rots":[-5,15,-15,-25,25,5],"dils":[0.975,1.125,1.025,0.925,1.075,0.875],"loop_number":"NA","everTouched":null},{"id":"test","shape":"trapezoid","outlier_type":1,"choice":2,"outlierPosition":2,"success":true,"majorityOfMostRegularShapes":true,"rt":3388.3999999998196,"rot1":-25,"rot2":5,"rot3":-5,"rot4":-15,"rot5":25,"rot6":15,"dil1":0.875,"dil2":1.025,"dil3":0.975,"dil4":0.925,"dil5":1.125,"dil6":1.075,"rots":[-25,5,-5,-15,25,15],"dils":[0.875,1.025,0.975,0.925,1.125,1.075],"loop_number":"NA","everTouched":null},{"id":"test","shape":"isoTrapezoid","outlier_type":0,"choice":4,"outlierPosition":4,"success":true,"majorityOfMostRegularShapes":true,"rt":2416.000000001077,"rot1":15,"rot2":-15,"rot3":-5,"rot4":5,"rot5":-25,"rot6":25,"dil1":0.875,"dil2":1.025,"dil3":1.075,"dil4":0.975,"dil5":0.925,"dil6":1.125,"rots":[15,-15,-5,5,-25,25],"dils":[0.875,1.025,1.075,0.975,0.925,1.125],"loop_number":"NA","everTouched":null},{"id":"test","shape":"parallelogram","outlier_type":1,"choice":5,"outlierPosition":5,"success":true,"majorityOfMostRegularShapes":true,"rt":2542.0999999987544,"rot1":5,"rot2":-5,"rot3":25,"rot4":15,"rot5":-25,"rot6":-15,"dil1":1.075,"dil2":0.925,"dil3":1.025,"dil4":0.975,"dil5":1.125,"dil6":0.875,"rots":[5,-5,25,15,-25,-15],"dils":[1.075,0.925,1.025,0.975,1.125,0.875],"loop_number":"NA","everTouched":null},{"id":"test","shape":"random","outlier_type":3,"choice":3,"outlierPosition":3,"success":true,"majorityOfMostRegularShapes":true,"rt":11653.599999999627,"rot1":-15,"rot2":-25,"rot3":5,"rot4":15,"rot5":-5,"rot6":25,"dil1":1.125,"dil2":0.975,"dil3":1.025,"dil4":1.075,"dil5":0.925,"dil6":0.875,"rots":[-15,-25,5,15,-5,25],"dils":[1.125,0.975,1.025,1.075,0.925,0.875],"loop_number":"NA","everTouched":null},{"id":"test","shape":"rightKite","outlier_type":0,"choice":4,"outlierPosition":4,"success":true,"majorityOfMostRegularShapes":true,"rt":8369.09999999989,"rot1":-5,"rot2":15,"rot3":25,"rot4":5,"rot5":-15,"rot6":-25,"dil1":1.075,"dil2":0.925,"dil3":1.125,"dil4":0.975,"dil5":0.875,"dil6":1.025,"rots":[-5,15,25,5,-15,-25],"dils":[1.075,0.925,1.125,0.975,0.875,1.025],"loop_number":"NA","everTouched":null},{"id":"test","shape":"square","outlier_type":1,"choice":0,"outlierPosition":0,"success":true,"majorityOfMostRegularShapes":true,"rt":1980.1999999999534,"rot1":5,"rot2":-5,"rot3":15,"rot4":-15,"rot5":-25,"rot6":25,"dil1":0.975,"dil2":1.075,"dil3":0.875,"dil4":1.025,"dil5":0.925,"dil6":1.125,"rots":[5,-5,15,-15,-25,25],"dils":[0.975,1.075,0.875,1.025,0.925,1.125],"loop_number":"NA","everTouched":null},{"id":"test","shape":"losange","outlier_type":0,"choice":3,"outlierPosition":3,"success":true,"majorityOfMostRegularShapes":true,"rt":3642.799999999639,"rot1":-15,"rot2":5,"rot3":15,"rot4":25,"rot5":-25,"rot6":-5,"dil1":0.925,"dil2":1.075,"dil3":0.875,"dil4":1.025,"dil5":0.975,"dil6":1.125,"rots":[-15,5,15,25,-25,-5],"dils":[0.925,1.075,0.875,1.025,0.975,1.125],"loop_number":"NA","everTouched":null},{"id":"test","shape":"losange","outlier_type":2,"choice":3,"outlierPosition":3,"success":true,"majorityOfMostRegularShapes":true,"rt":1707.0999999996275,"rot1":-15,"rot2":-25,"rot3":25,"rot4":-5,"rot5":5,"rot6":15,"dil1":0.925,"dil2":1.075,"dil3":1.125,"dil4":0.975,"dil5":1.025,"dil6":0.875,"rots":[-15,-25,25,-5,5,15],"dils":[0.925,1.075,1.125,0.975,1.025,0.875],"loop_number":"NA","everTouched":null},{"id":"test","shape":"hinge","outlier_type":1,"choice":3,"outlierPosition":3,"success":true,"majorityOfMostRegularShapes":true,"rt":3088.4999999998545,"rot1":25,"rot2":-15,"rot3":-5,"rot4":5,"rot5":15,"rot6":-25,"dil1":1.075,"dil2":0.925,"dil3":0.975,"dil4":0.875,"dil5":1.025,"dil6":1.125,"rots":[25,-15,-5,5,15,-25],"dils":[1.075,0.925,0.975,0.875,1.025,1.125],"loop_number":"NA","everTouched":null},{"id":"test","shape":"parallelogram","outlier_type":3,"choice":0,"outlierPosition":3,"success":false,"majorityOfMostRegularShapes":true,"rt":1962.9000000004307,"rot1":25,"rot2":-5,"rot3":5,"rot4":-25,"rot5":-15,"rot6":15,"dil1":0.875,"dil2":1.075,"dil3":0.975,"dil4":1.025,"dil5":1.125,"dil6":0.925,"rots":[25,-5,5,-25,-15,15],"dils":[0.875,1.075,0.975,1.025,1.125,0.925],"loop_number":"NA","everTouched":null},{"id":"test","shape":"kite","outlier_type":0,"choice":3,"outlierPosition":2,"success":false,"majorityOfMostRegularShapes":true,"rt":10264.299999998912,"rot1":15,"rot2":25,"rot3":-15,"rot4":-5,"rot5":5,"rot6":-25,"dil1":1.125,"dil2":0.925,"dil3":0.975,"dil4":0.875,"dil5":1.025,"dil6":1.075,"rots":[15,25,-15,-5,5,-25],"dils":[1.125,0.925,0.975,0.875,1.025,1.075],"loop_number":"NA","everTouched":null},{"id":"test","shape":"isoTrapezoid","outlier_type":1,"choice":1,"outlierPosition":1,"success":true,"majorityOfMostRegularShapes":true,"rt":3091.0999999996275,"rot1":25,"rot2":-15,"rot3":5,"rot4":-25,"rot5":15,"rot6":-5,"dil1":1.125,"dil2":1.075,"dil3":0.975,"dil4":1.025,"dil5":0.925,"dil6":0.875,"rots":[25,-15,5,-25,15,-5],"dils":[1.125,1.075,0.975,1.025,0.925,0.875],"loop_number":"NA","everTouched":null},{"id":"test","shape":"square","outlier_type":0,"choice":2,"outlierPosition":2,"success":true,"majorityOfMostRegularShapes":true,"rt":1478.9999999993597,"rot1":-15,"rot2":5,"rot3":25,"rot4":15,"rot5":-5,"rot6":-25,"dil1":0.925,"dil2":1.125,"dil3":1.075,"dil4":0.975,"dil5":1.025,"dil6":0.875,"rots":[-15,5,25,15,-5,-25],"dils":[0.925,1.125,1.075,0.975,1.025,0.875],"loop_number":"NA","everTouched":null},{"id":"test","shape":"kite","outlier_type":2,"choice":4,"outlierPosition":4,"success":true,"majorityOfMostRegularShapes":true,"rt":3936.1000000007916,"rot1":15,"rot2":25,"rot3":-25,"rot4":-15,"rot5":5,"rot6":-5,"dil1":1.025,"dil2":1.075,"dil3":0.975,"dil4":0.925,"dil5":1.125,"dil6":0.875,"rots":[15,25,-25,-15,5,-5],"dils":[1.025,1.075,0.975,0.925,1.125,0.875],"loop_number":"NA","everTouched":null},{"id":"test","shape":"losange","outlier_type":1,"choice":2,"outlierPosition":2,"success":true,"majorityOfMostRegularShapes":true,"rt":1690.0000000004948,"rot1":-5,"rot2":25,"rot3":-15,"rot4":15,"rot5":5,"rot6":-25,"dil1":1.075,"dil2":0.925,"dil3":0.875,"dil4":1.125,"dil5":1.025,"dil6":0.975,"rots":[-5,25,-15,15,5,-25],"dils":[1.075,0.925,0.875,1.125,1.025,0.975],"loop_number":"NA","everTouched":null},{"id":"test","shape":"hinge","outlier_type":0,"choice":2,"outlierPosition":2,"success":true,"majorityOfMostRegularShapes":true,"rt":5399.999999999651,"rot1":5,"rot2":-25,"rot3":15,"rot4":-15,"rot5":25,"rot6":-5,"dil1":1.075,"dil2":1.125,"dil3":1.025,"dil4":0.975,"dil5":0.925,"dil6":0.875,"rots":[5,-25,15,-15,25,-5],"dils":[1.075,1.125,1.025,0.975,0.925,0.875],"loop_number":"NA","everTouched":null},{"id":"test","shape":"square","outlier_type":2,"choice":2,"outlierPosition":2,"success":true,"majorityOfMostRegularShapes":true,"rt":1169.5999999992782,"rot1":-25,"rot2":-5,"rot3":-15,"rot4":15,"rot5":5,"rot6":25,"dil1":0.925,"dil2":1.125,"dil3":1.025,"dil4":0.875,"dil5":1.075,"dil6":0.975,"rots":[-25,-5,-15,15,5,25],"dils":[0.925,1.125,1.025,0.875,1.075,0.975],"loop_number":"NA","everTouched":null},{"id":"test","shape":"rectangle","outlier_type":0,"choice":4,"outlierPosition":4,"success":true,"majorityOfMostRegularShapes":true,"rt":1740.6000000010245,"rot1":-25,"rot2":-5,"rot3":25,"rot4":15,"rot5":-15,"rot6":5,"dil1":0.975,"dil2":1.125,"dil3":0.925,"dil4":0.875,"dil5":1.025,"dil6":1.075,"rots":[-25,-5,25,15,-15,5],"dils":[0.975,1.125,0.925,0.875,1.025,1.075],"loop_number":"NA","everTouched":null},{"id":"test","shape":"losange","outlier_type":3,"choice":4,"outlierPosition":4,"success":true,"majorityOfMostRegularShapes":true,"rt":2379.6999999994878,"rot1":-15,"rot2":-25,"rot3":15,"rot4":5,"rot5":-5,"rot6":25,"dil1":0.975,"dil2":1.125,"dil3":1.075,"dil4":0.925,"dil5":0.875,"dil6":1.025,"rots":[-15,-25,15,5,-5,25],"dils":[0.975,1.125,1.075,0.925,0.875,1.025],"loop_number":"NA","everTouched":null},{"id":"test","shape":"random","outlier_type":0,"choice":4,"outlierPosition":1,"success":false,"majorityOfMostRegularShapes":true,"rt":12369.30000000028,"rot1":-15,"rot2":5,"rot3":25,"rot4":15,"rot5":-25,"rot6":-5,"dil1":1.125,"dil2":0.975,"dil3":0.875,"dil4":1.075,"dil5":0.925,"dil6":1.025,"rots":[-15,5,25,15,-25,-5],"dils":[1.125,0.975,0.875,1.075,0.925,1.025],"loop_number":"NA","everTouched":null},{"id":"test","shape":"rustedHinge","outlier_type":0,"choice":2,"outlierPosition":2,"success":true,"majorityOfMostRegularShapes":true,"rt":10940.999999998894,"rot1":25,"rot2":-25,"rot3":15,"rot4":-5,"rot5":5,"rot6":-15,"dil1":0.925,"dil2":0.975,"dil3":1.075,"dil4":0.875,"dil5":1.025,"dil6":1.125,"rots":[25,-25,15,-5,5,-15],"dils":[0.925,0.975,1.075,0.875,1.025,1.125],"loop_number":"NA","everTouched":null},{"id":"test","shape":"rectangle","outlier_type":1,"choice":4,"outlierPosition":4,"success":true,"majorityOfMostRegularShapes":true,"rt":1680.7000000008265,"rot1":25,"rot2":-15,"rot3":-5,"rot4":5,"rot5":15,"rot6":-25,"dil1":0.975,"dil2":1.025,"dil3":1.125,"dil4":0.925,"dil5":1.075,"dil6":0.875,"rots":[25,-15,-5,5,15,-25],"dils":[0.975,1.025,1.125,0.925,1.075,0.875],"loop_number":"NA","everTouched":null},{"id":"test","shape":"rightKite","outlier_type":3,"choice":1,"outlierPosition":3,"success":false,"majorityOfMostRegularShapes":true,"rt":10960.800000000745,"rot1":25,"rot2":-25,"rot3":-15,"rot4":5,"rot5":-5,"rot6":15,"dil1":1.075,"dil2":0.975,"dil3":1.125,"dil4":0.875,"dil5":0.925,"dil6":1.025,"rots":[25,-25,-15,5,-5,15],"dils":[1.075,0.975,1.125,0.875,0.925,1.025],"loop_number":"NA","everTouched":null},{"id":"test","shape":"rectangle","outlier_type":2,"choice":0,"outlierPosition":0,"success":true,"majorityOfMostRegularShapes":true,"rt":1950.7999999987078,"rot1":-25,"rot2":-5,"rot3":25,"rot4":5,"rot5":15,"rot6":-15,"dil1":0.975,"dil2":1.075,"dil3":1.025,"dil4":1.125,"dil5":0.925,"dil6":0.875,"rots":[-25,-5,25,5,15,-15],"dils":[0.975,1.075,1.025,1.125,0.925,0.875],"loop_number":"NA","everTouched":null},{"id":"test","shape":"square","outlier_type":3,"choice":3,"outlierPosition":3,"success":true,"majorityOfMostRegularShapes":true,"rt":1998.000000001397,"rot1":25,"rot2":5,"rot3":-5,"rot4":-15,"rot5":15,"rot6":-25,"dil1":0.975,"dil2":1.125,"dil3":1.075,"dil4":0.925,"dil5":0.875,"dil6":1.025,"rots":[25,5,-5,-15,15,-25],"dils":[0.975,1.125,1.075,0.925,0.875,1.025],"loop_number":"NA","everTouched":null},{"id":"test","shape":"rustedHinge","outlier_type":1,"choice":0,"outlierPosition":0,"success":true,"majorityOfMostRegularShapes":true,"rt":2901.599999999278,"rot1":-25,"rot2":25,"rot3":-5,"rot4":-15,"rot5":5,"rot6":15,"dil1":1.125,"dil2":0.975,"dil3":0.925,"dil4":0.875,"dil5":1.075,"dil6":1.025,"rots":[-25,25,-5,-15,5,15],"dils":[1.125,0.975,0.925,0.875,1.075,1.025],"loop_number":"NA","everTouched":null},{"id":"test","shape":"rectangle","outlier_type":3,"choice":5,"outlierPosition":5,"success":true,"majorityOfMostRegularShapes":true,"rt":1671.4999999985448,"rot1":-5,"rot2":-25,"rot3":-15,"rot4":15,"rot5":25,"rot6":5,"dil1":1.075,"dil2":1.125,"dil3":0.975,"dil4":0.875,"dil5":0.925,"dil6":1.025,"rots":[-5,-25,-15,15,25,5],"dils":[1.075,1.125,0.975,0.875,0.925,1.025],"loop_number":"NA","everTouched":null},{"id":"test","shape":"trapezoid","outlier_type":2,"choice":2,"outlierPosition":4,"success":false,"majorityOfMostRegularShapes":true,"rt":11254.999999999243,"rot1":5,"rot2":-5,"rot3":-15,"rot4":15,"rot5":-25,"rot6":25,"dil1":0.975,"dil2":1.125,"dil3":0.925,"dil4":1.075,"dil5":0.875,"dil6":1.025,"rots":[5,-5,-15,15,-25,25],"dils":[0.975,1.125,0.925,1.075,0.875,1.025],"loop_number":"NA","everTouched":null},{"id":"test","shape":"random","outlier_type":1,"choice":4,"outlierPosition":3,"success":false,"majorityOfMostRegularShapes":true,"rt":8696.400000000722,"rot1":15,"rot2":-15,"rot3":-25,"rot4":5,"rot5":25,"rot6":-5,"dil1":0.975,"dil2":0.875,"dil3":0.925,"dil4":1.025,"dil5":1.125,"dil6":1.075,"rots":[15,-15,-25,5,25,-5],"dils":[0.975,0.875,0.925,1.025,1.125,1.075],"loop_number":"NA","everTouched":null},{"id":"test","shape":"trapezoid","outlier_type":0,"choice":2,"outlierPosition":2,"success":true,"majorityOfMostRegularShapes":true,"rt":6902.099999999395,"rot1":-25,"rot2":-5,"rot3":25,"rot4":15,"rot5":-15,"rot6":5,"dil1":0.975,"dil2":1.075,"dil3":0.875,"dil4":1.125,"dil5":1.025,"dil6":0.925,"rots":[-25,-5,25,15,-15,5],"dils":[0.975,1.075,0.875,1.125,1.025,0.925],"loop_number":"NA","everTouched":null},{"id":"test","shape":"rightKite","outlier_type":1,"choice":1,"outlierPosition":5,"success":false,"majorityOfMostRegularShapes":true,"rt":7667.399999998452,"rot1":-5,"rot2":-25,"rot3":25,"rot4":15,"rot5":-15,"rot6":5,"dil1":0.925,"dil2":1.025,"dil3":0.875,"dil4":0.975,"dil5":1.125,"dil6":1.075,"rots":[-5,-25,25,15,-15,5],"dils":[0.925,1.025,0.875,0.975,1.125,1.075],"loop_number":"NA","everTouched":null},{"id":"test","shape":"isoTrapezoid","outlier_type":2,"choice":3,"outlierPosition":3,"success":true,"majorityOfMostRegularShapes":true,"rt":3682.600000000093,"rot1":25,"rot2":15,"rot3":-5,"rot4":-15,"rot5":-25,"rot6":5,"dil1":0.875,"dil2":0.975,"dil3":0.925,"dil4":1.025,"dil5":1.075,"dil6":1.125,"rots":[25,15,-5,-15,-25,5],"dils":[0.875,0.975,0.925,1.025,1.075,1.125],"loop_number":"NA","everTouched":null},{"id":"test","shape":"parallelogram","outlier_type":0,"choice":5,"outlierPosition":5,"success":true,"majorityOfMostRegularShapes":true,"rt":2875.2999999996973,"rot1":15,"rot2":-5,"rot3":25,"rot4":-25,"rot5":5,"rot6":-15,"dil1":1.025,"dil2":0.925,"dil3":1.075,"dil4":1.125,"dil5":0.975,"dil6":0.875,"rots":[15,-5,25,-25,5,-15],"dils":[1.025,0.925,1.075,1.125,0.975,0.875],"loop_number":"NA","everTouched":null},{"id":"test","shape":"kite","outlier_type":1,"choice":0,"outlierPosition":0,"success":true,"majorityOfMostRegularShapes":true,"rt":4401.5,"rot1":15,"rot2":-15,"rot3":25,"rot4":-5,"rot5":-25,"rot6":5,"dil1":1.075,"dil2":0.975,"dil3":0.925,"dil4":0.875,"dil5":1.025,"dil6":1.125,"rots":[15,-15,25,-5,-25,5],"dils":[1.075,0.975,0.925,0.875,1.025,1.125],"loop_number":"NA","everTouched":null},{"id":"test","shape":"parallelogram","outlier_type":2,"choice":2,"outlierPosition":2,"success":true,"majorityOfMostRegularShapes":true,"rt":3507.4000000004307,"rot1":5,"rot2":25,"rot3":-5,"rot4":-15,"rot5":15,"rot6":-25,"dil1":0.925,"dil2":0.975,"dil3":1.075,"dil4":1.125,"dil5":0.875,"dil6":1.025,"rots":[5,25,-5,-15,15,-25],"dils":[0.925,0.975,1.075,1.125,0.875,1.025],"loop_number":"NA","everTouched":null},{"id":"test","shape":"trapezoid","outlier_type":3,"choice":4,"outlierPosition":4,"success":true,"majorityOfMostRegularShapes":true,"rt":4097.69999999844,"rot1":15,"rot2":-15,"rot3":-5,"rot4":-25,"rot5":5,"rot6":25,"dil1":0.925,"dil2":1.025,"dil3":0.875,"dil4":0.975,"dil5":1.075,"dil6":1.125,"rots":[15,-15,-5,-25,5,25],"dils":[0.925,1.025,0.875,0.975,1.075,1.125],"loop_number":"NA","everTouched":null},{"id":"test","shape":"hinge","outlier_type":2,"choice":4,"outlierPosition":4,"success":true,"majorityOfMostRegularShapes":true,"rt":5340.899999999267,"rot1":5,"rot2":-25,"rot3":25,"rot4":-5,"rot5":15,"rot6":-15,"dil1":0.875,"dil2":0.925,"dil3":0.975,"dil4":1.125,"dil5":1.075,"dil6":1.025,"rots":[5,-25,25,-5,15,-15],"dils":[0.875,0.925,0.975,1.125,1.075,1.025],"loop_number":"NA","everTouched":null},{"id":"test","shape":"isoTrapezoid","outlier_type":3,"choice":0,"outlierPosition":0,"success":true,"majorityOfMostRegularShapes":true,"rt":1844.4999999992433,"rot1":5,"rot2":25,"rot3":-25,"rot4":-5,"rot5":15,"rot6":-15,"dil1":1.075,"dil2":0.925,"dil3":0.975,"dil4":0.875,"dil5":1.125,"dil6":1.025,"rots":[5,25,-25,-5,15,-15],"dils":[1.075,0.925,0.975,0.875,1.125,1.025],"loop_number":"NA","everTouched":null},{"id":"test","shape":"rustedHinge","outlier_type":2,"choice":2,"outlierPosition":4,"success":false,"majorityOfMostRegularShapes":true,"rt":12162.90000000113,"rot1":5,"rot2":-25,"rot3":25,"rot4":-5,"rot5":-15,"rot6":15,"dil1":0.875,"dil2":0.975,"dil3":1.075,"dil4":1.025,"dil5":1.125,"dil6":0.925,"rots":[5,-25,25,-5,-15,15],"dils":[0.875,0.975,1.075,1.025,1.125,0.925],"loop_number":"NA","everTouched":null},{"id":"test","shape":"kite","outlier_type":3,"choice":5,"outlierPosition":5,"success":true,"majorityOfMostRegularShapes":true,"rt":4050.5000000012224,"rot1":5,"rot2":15,"rot3":-5,"rot4":25,"rot5":-25,"rot6":-15,"dil1":1.075,"dil2":1.125,"dil3":0.975,"dil4":0.875,"dil5":0.925,"dil6":1.025,"rots":[5,15,-5,25,-25,-15],"dils":[1.075,1.125,0.975,0.875,0.925,1.025],"loop_number":"NA","everTouched":null},{"id":"test","shape":"random","outlier_type":2,"choice":5,"outlierPosition":5,"success":true,"majorityOfMostRegularShapes":true,"rt":4780.500000000757,"rot1":15,"rot2":25,"rot3":-25,"rot4":5,"rot5":-15,"rot6":-5,"dil1":0.975,"dil2":1.075,"dil3":1.025,"dil4":0.875,"dil5":0.925,"dil6":1.125,"rots":[15,25,-25,5,-15,-5],"dils":[0.975,1.075,1.025,0.875,0.925,1.125],"loop_number":"NA","everTouched":null},{"id":"test","shape":"hinge","outlier_type":3,"choice":3,"outlierPosition":3,"success":true,"majorityOfMostRegularShapes":true,"rt":4587.499999999651,"rot1":-25,"rot2":-15,"rot3":15,"rot4":-5,"rot5":5,"rot6":25,"dil1":0.875,"dil2":1.075,"dil3":1.025,"dil4":1.125,"dil5":0.975,"dil6":0.925,"rots":[-25,-15,15,-5,5,25],"dils":[0.875,1.075,1.025,1.125,0.975,0.925],"loop_number":"NA","everTouched":null}],"desiredDistance":0.3,"trial_type":"oddball-grid","trial_index":3,"time_elapsed":385444,"internal_node_id":"0.0-3.0","ID":"kyr10wlo47"},{"success":true,"trial_type":"fullscreen","trial_index":4,"time_elapsed":390610,"internal_node_id":"0.0-4.0","ID":"kyr10wlo47"}]