[{"success":true,"trial_type":"fullscreen","trial_index":0,"time_elapsed":19958,"internal_node_id":"0.0-0.0","ID":"mbujhc23l1"},{"results":[{"id":"train-images","shape":"5","outlier_type":"NA","choice":5,"outlierPosition":5,"success":true,"majorityOfMostRegularShapes":"NA","rt":9368.200000000797,"rot1":-25,"rot2":5,"rot3":15,"rot4":-5,"rot5":-15,"rot6":25,"dil1":1.025,"dil2":0.925,"dil3":0.975,"dil4":1.125,"dil5":0.875,"dil6":1.075,"rots":[-25,5,15,-5,-15,25],"dils":[1.025,0.925,0.975,1.125,0.875,1.075],"loop_number":1,"everTouched":null},{"id":"train-images","shape":"10","outlier_type":"NA","choice":2,"outlierPosition":2,"success":true,"majorityOfMostRegularShapes":"NA","rt":1323.100000001432,"rot1":-25,"rot2":5,"rot3":-5,"rot4":15,"rot5":25,"rot6":-15,"dil1":0.975,"dil2":1.075,"dil3":1.125,"dil4":0.925,"dil5":0.875,"dil6":1.025,"rots":[-25,5,-5,15,25,-15],"dils":[0.975,1.075,1.125,0.925,0.875,1.025],"loop_number":1,"everTouched":null},{"id":"train-images","shape":"1","outlier_type":"NA","choice":3,"outlierPosition":3,"success":true,"majorityOfMostRegularShapes":"NA","rt":1053.8000000015018,"rot1":25,"rot2":-25,"rot3":-15,"rot4":15,"rot5":-5,"rot6":5,"dil1":0.975,"dil2":0.875,"dil3":1.075,"dil4":0.925,"dil5":1.125,"dil6":1.025,"rots":[25,-25,-15,15,-5,5],"dils":[0.975,0.875,1.075,0.925,1.125,1.025],"loop_number":1,"everTouched":null},{"id":"train-images","shape":"7","outlier_type":"NA","choice":3,"outlierPosition":3,"success":true,"majorityOfMostRegularShapes":"NA","rt":1011.8000000002212,"rot1":25,"rot2":-25,"rot3":15,"rot4":-15,"rot5":5,"rot6":-5,"dil1":1.025,"dil2":0.925,"dil3":0.975,"dil4":1.075,"dil5":1.125,"dil6":0.875,"rots":[25,-25,15,-15,5,-5],"dils":[1.025,0.925,0.975,1.075,1.125,0.875],"loop_number":1,"everTouched":null},{"id":"train-images","shape":"6","outlier_type":"NA","choice":4,"outlierPosition":4,"success":true,"majorityOfMostRegularShapes":"NA","rt":1276.9000000007509,"rot1":25,"rot2":-15,"rot3":-5,"rot4":-25,"rot5":5,"rot6":15,"dil1":0.975,"dil2":1.075,"dil3":0.925,"dil4":1.125,"dil5":0.875,"dil6":1.025,"rots":[25,-15,-5,-25,5,15],"dils":[0.975,1.075,0.925,1.125,0.875,1.025],"loop_number":1,"everTouched":null},{"id":"train-images","shape":"3","outlier_type":"NA","choice":2,"outlierPosition":2,"success":true,"majorityOfMostRegularShapes":"NA","rt":1125.5999999993946,"rot1":15,"rot2":-15,"rot3":-25,"rot4":5,"rot5":-5,"rot6":25,"dil1":0.975,"dil2":0.875,"dil3":1.125,"dil4":1.025,"dil5":0.925,"dil6":1.075,"rots":[15,-15,-25,5,-5,25],"dils":[0.975,0.875,1.125,1.025,0.925,1.075],"loop_number":1,"everTouched":null},{"id":"train-images","shape":"8","outlier_type":"NA","choice":5,"outlierPosition":5,"success":true,"majorityOfMostRegularShapes":"NA","rt":1203.799999999319,"rot1":25,"rot2":5,"rot3":-5,"rot4":-15,"rot5":15,"rot6":-25,"dil1":0.875,"dil2":1.125,"dil3":1.075,"dil4":0.925,"dil5":1.025,"dil6":0.975,"rots":[25,5,-5,-15,15,-25],"dils":[0.875,1.125,1.075,0.925,1.025,0.975],"loop_number":1,"everTouched":null},{"id":"train-images","shape":"2","outlier_type":"NA","choice":5,"outlierPosition":5,"success":true,"majorityOfMostRegularShapes":"NA","rt":989.000000001397,"rot1":-15,"rot2":15,"rot3":5,"rot4":-25,"rot5":-5,"rot6":25,"dil1":1.075,"dil2":0.875,"dil3":0.975,"dil4":0.925,"dil5":1.025,"dil6":1.125,"rots":[-15,15,5,-25,-5,25],"dils":[1.075,0.875,0.975,0.925,1.025,1.125],"loop_number":1,"everTouched":null},{"id":"train-images","shape":"4","outlier_type":"NA","choice":3,"outlierPosition":3,"success":true,"majorityOfMostRegularShapes":"NA","rt":2426.900000002206,"rot1":-15,"rot2":25,"rot3":-25,"rot4":5,"rot5":15,"rot6":-5,"dil1":0.975,"dil2":1.025,"dil3":1.075,"dil4":1.125,"dil5":0.925,"dil6":0.875,"rots":[-15,25,-25,5,15,-5],"dils":[0.975,1.025,1.075,1.125,0.925,0.875],"loop_number":1,"everTouched":null},{"id":"train-images","shape":"9","outlier_type":"NA","choice":2,"outlierPosition":2,"success":true,"majorityOfMostRegularShapes":"NA","rt":1010.6000000014319,"rot1":15,"rot2":-5,"rot3":-25,"rot4":25,"rot5":-15,"rot6":5,"dil1":0.925,"dil2":1.125,"dil3":0.875,"dil4":1.025,"dil5":1.075,"dil6":0.975,"rots":[15,-5,-25,25,-15,5],"dils":[0.925,1.125,0.875,1.025,1.075,0.975],"loop_number":1,"everTouched":null}],"trial_type":"oddball-grid-image","trial_index":1,"time_elapsed":70313,"internal_node_id":"0.0-1.0","ID":"mbujhc23l1"},{"results":[{"id":"train","shape":null,"outlier_type":null,"choice":4,"outlierPosition":4,"success":true,"majorityOfMostRegularShapes":null,"rt":1018.0000000000291,"rot1":-25,"rot2":25,"rot3":5,"rot4":-15,"rot5":15,"rot6":-5,"dil1":0.925,"dil2":0.875,"dil3":0.975,"dil4":1.125,"dil5":1.025,"dil6":1.075,"rots":[-25,25,5,-15,15,-5],"dils":[0.925,0.875,0.975,1.125,1.025,1.075],"loop_number":1,"everTouched":null},{"id":"train","shape":null,"outlier_type":null,"choice":4,"outlierPosition":4,"success":true,"majorityOfMostRegularShapes":null,"rt":1131.7000000017288,"rot1":5,"rot2":-5,"rot3":-15,"rot4":-25,"rot5":15,"rot6":25,"dil1":0.875,"dil2":0.975,"dil3":1.075,"dil4":0.925,"dil5":1.025,"dil6":1.125,"rots":[5,-5,-15,-25,15,25],"dils":[0.875,0.975,1.075,0.925,1.025,1.125],"loop_number":1,"everTouched":null},{"id":"train","shape":null,"outlier_type":null,"choice":1,"outlierPosition":1,"success":true,"majorityOfMostRegularShapes":null,"rt":1001.0000000002037,"rot1":-5,"rot2":-15,"rot3":25,"rot4":15,"rot5":5,"rot6":-25,"dil1":1.025,"dil2":1.125,"dil3":1.075,"dil4":0.975,"dil5":0.925,"dil6":0.875,"rots":[-5,-15,25,15,5,-25],"dils":[1.025,1.125,1.075,0.975,0.925,0.875],"loop_number":1,"everTouched":null},{"id":"train","shape":null,"outlier_type":null,"choice":1,"outlierPosition":1,"success":true,"majorityOfMostRegularShapes":null,"rt":1033.900000002177,"rot1":5,"rot2":15,"rot3":25,"rot4":-15,"rot5":-25,"rot6":-5,"dil1":1.025,"dil2":1.075,"dil3":0.875,"dil4":0.925,"dil5":0.975,"dil6":1.125,"rots":[5,15,25,-15,-25,-5],"dils":[1.025,1.075,0.875,0.925,0.975,1.125],"loop_number":1,"everTouched":null},{"id":"train","shape":null,"outlier_type":null,"choice":4,"outlierPosition":4,"success":true,"majorityOfMostRegularShapes":null,"rt":968.0000000007567,"rot1":-15,"rot2":-25,"rot3":-5,"rot4":25,"rot5":15,"rot6":5,"dil1":1.025,"dil2":0.975,"dil3":0.875,"dil4":1.125,"dil5":0.925,"dil6":1.075,"rots":[-15,-25,-5,25,15,5],"dils":[1.025,0.975,0.875,1.125,0.925,1.075],"loop_number":1,"everTouched":null},{"id":"train","shape":null,"outlier_type":null,"choice":4,"outlierPosition":4,"success":true,"majorityOfMostRegularShapes":null,"rt":1377.0999999978812,"rot1":25,"rot2":5,"rot3":-5,"rot4":-25,"rot5":-15,"rot6":15,"dil1":1.025,"dil2":0.925,"dil3":0.875,"dil4":1.075,"dil5":0.975,"dil6":1.125,"rots":[25,5,-5,-25,-15,15],"dils":[1.025,0.925,0.875,1.075,0.975,1.125],"loop_number":1,"everTouched":null}],"desiredDistance":0.3,"trial_type":"oddball-grid-easy","trial_index":2,"time_elapsed":85876,"internal_node_id":"0.0-2.0","ID":"mbujhc23l1"},{"results":[{"id":"test","shape":"trapezoid","outlier_type":0,"choice":3,"outlierPosition":3,"success":true,"majorityOfMostRegularShapes":true,"rt":13112.900000000081,"rot1":-5,"rot2":5,"rot3":15,"rot4":-25,"rot5":-15,"rot6":25,"dil1":1.025,"dil2":0.975,"dil3":0.875,"dil4":1.075,"dil5":1.125,"dil6":0.925,"rots":[-5,5,15,-25,-15,25],"dils":[1.025,0.975,0.875,1.075,1.125,0.925],"loop_number":"NA","everTouched":null},{"id":"test","shape":"hinge","outlier_type":3,"choice":2,"outlierPosition":4,"success":false,"majorityOfMostRegularShapes":true,"rt":2762.399999999616,"rot1":-15,"rot2":5,"rot3":-25,"rot4":15,"rot5":-5,"rot6":25,"dil1":1.075,"dil2":0.925,"dil3":1.025,"dil4":0.875,"dil5":0.975,"dil6":1.125,"rots":[-15,5,-25,15,-5,25],"dils":[1.075,0.925,1.025,0.875,0.975,1.125],"loop_number":"NA","everTouched":null},{"id":"test","shape":"isoTrapezoid","outlier_type":1,"choice":5,"outlierPosition":5,"success":true,"majorityOfMostRegularShapes":true,"rt":2745.3999999997905,"rot1":5,"rot2":-25,"rot3":25,"rot4":-15,"rot5":15,"rot6":-5,"dil1":1.125,"dil2":1.075,"dil3":0.875,"dil4":0.975,"dil5":0.925,"dil6":1.025,"rots":[5,-25,25,-15,15,-5],"dils":[1.125,1.075,0.875,0.975,0.925,1.025],"loop_number":"NA","everTouched":null},{"id":"test","shape":"kite","outlier_type":0,"choice":3,"outlierPosition":3,"success":true,"majorityOfMostRegularShapes":true,"rt":2890.9999999996217,"rot1":-25,"rot2":-15,"rot3":-5,"rot4":5,"rot5":25,"rot6":15,"dil1":0.975,"dil2":1.025,"dil3":1.125,"dil4":0.875,"dil5":0.925,"dil6":1.075,"rots":[-25,-15,-5,5,25,15],"dils":[0.975,1.025,1.125,0.875,0.925,1.075],"loop_number":"NA","everTouched":null},{"id":"test","shape":"rectangle","outlier_type":3,"choice":4,"outlierPosition":4,"success":true,"majorityOfMostRegularShapes":true,"rt":1995.200000001205,"rot1":15,"rot2":-25,"rot3":5,"rot4":-15,"rot5":25,"rot6":-5,"dil1":0.975,"dil2":1.075,"dil3":0.925,"dil4":0.875,"dil5":1.125,"dil6":1.025,"rots":[15,-25,5,-15,25,-5],"dils":[0.975,1.075,0.925,0.875,1.125,1.025],"loop_number":"NA","everTouched":null},{"id":"test","shape":"hinge","outlier_type":1,"choice":5,"outlierPosition":5,"success":true,"majorityOfMostRegularShapes":true,"rt":7104.299999999057,"rot1":25,"rot2":-25,"rot3":-5,"rot4":5,"rot5":-15,"rot6":15,"dil1":0.975,"dil2":1.125,"dil3":0.875,"dil4":0.925,"dil5":1.025,"dil6":1.075,"rots":[25,-25,-5,5,-15,15],"dils":[0.975,1.125,0.875,0.925,1.025,1.075],"loop_number":"NA","everTouched":null},{"id":"test","shape":"rustedHinge","outlier_type":3,"choice":5,"outlierPosition":5,"success":true,"majorityOfMostRegularShapes":true,"rt":1777.7999999998428,"rot1":15,"rot2":-15,"rot3":5,"rot4":25,"rot5":-25,"rot6":-5,"dil1":0.875,"dil2":0.925,"dil3":0.975,"dil4":1.025,"dil5":1.125,"dil6":1.075,"rots":[15,-15,5,25,-25,-5],"dils":[0.875,0.925,0.975,1.025,1.125,1.075],"loop_number":"NA","everTouched":null},{"id":"test","shape":"square","outlier_type":0,"choice":0,"outlierPosition":0,"success":true,"majorityOfMostRegularShapes":true,"rt":1877.0999999978812,"rot1":25,"rot2":5,"rot3":-5,"rot4":-15,"rot5":-25,"rot6":15,"dil1":1.025,"dil2":1.125,"dil3":0.925,"dil4":0.975,"dil5":0.875,"dil6":1.075,"rots":[25,5,-5,-15,-25,15],"dils":[1.025,1.125,0.925,0.975,0.875,1.075],"loop_number":"NA","everTouched":null},{"id":"test","shape":"square","outlier_type":3,"choice":1,"outlierPosition":1,"success":true,"majorityOfMostRegularShapes":true,"rt":2241.099999999278,"rot1":15,"rot2":-15,"rot3":5,"rot4":-25,"rot5":25,"rot6":-5,"dil1":1.025,"dil2":1.125,"dil3":0.925,"dil4":0.975,"dil5":0.875,"dil6":1.075,"rots":[15,-15,5,-25,25,-5],"dils":[1.025,1.125,0.925,0.975,0.875,1.075],"loop_number":"NA","everTouched":null},{"id":"test","shape":"hinge","outlier_type":0,"choice":1,"outlierPosition":0,"success":false,"majorityOfMostRegularShapes":true,"rt":4774.700000001758,"rot1":-25,"rot2":25,"rot3":15,"rot4":-15,"rot5":-5,"rot6":5,"dil1":1.075,"dil2":0.875,"dil3":0.925,"dil4":1.025,"dil5":0.975,"dil6":1.125,"rots":[-25,25,15,-15,-5,5],"dils":[1.075,0.875,0.925,1.025,0.975,1.125],"loop_number":"NA","everTouched":null},{"id":"test","shape":"rectangle","outlier_type":1,"choice":4,"outlierPosition":4,"success":true,"majorityOfMostRegularShapes":true,"rt":1827.3000000008324,"rot1":15,"rot2":-15,"rot3":-25,"rot4":5,"rot5":25,"rot6":-5,"dil1":0.975,"dil2":0.925,"dil3":1.125,"dil4":1.025,"dil5":1.075,"dil6":0.875,"rots":[15,-15,-25,5,25,-5],"dils":[0.975,0.925,1.125,1.025,1.075,0.875],"loop_number":"NA","everTouched":null},{"id":"test","shape":"rustedHinge","outlier_type":0,"choice":3,"outlierPosition":3,"success":true,"majorityOfMostRegularShapes":true,"rt":3656.299999998737,"rot1":25,"rot2":-25,"rot3":-5,"rot4":15,"rot5":5,"rot6":-15,"dil1":1.025,"dil2":1.125,"dil3":0.975,"dil4":1.075,"dil5":0.875,"dil6":0.925,"rots":[25,-25,-5,15,5,-15],"dils":[1.025,1.125,0.975,1.075,0.875,0.925],"loop_number":"NA","everTouched":null},{"id":"test","shape":"parallelogram","outlier_type":1,"choice":5,"outlierPosition":5,"success":true,"majorityOfMostRegularShapes":true,"rt":2417.1000000023923,"rot1":25,"rot2":-15,"rot3":15,"rot4":5,"rot5":-25,"rot6":-5,"dil1":0.925,"dil2":0.875,"dil3":1.075,"dil4":0.975,"dil5":1.025,"dil6":1.125,"rots":[25,-15,15,5,-25,-5],"dils":[0.925,0.875,1.075,0.975,1.025,1.125],"loop_number":"NA","everTouched":null},{"id":"test","shape":"losange","outlier_type":2,"choice":1,"outlierPosition":1,"success":true,"majorityOfMostRegularShapes":true,"rt":3015.2000000016415,"rot1":5,"rot2":-25,"rot3":15,"rot4":-5,"rot5":-15,"rot6":25,"dil1":0.925,"dil2":1.075,"dil3":1.125,"dil4":1.025,"dil5":0.875,"dil6":0.975,"rots":[5,-25,15,-5,-15,25],"dils":[0.925,1.075,1.125,1.025,0.875,0.975],"loop_number":"NA","everTouched":null},{"id":"test","shape":"random","outlier_type":0,"choice":4,"outlierPosition":4,"success":true,"majorityOfMostRegularShapes":true,"rt":3107.800000001589,"rot1":-25,"rot2":25,"rot3":5,"rot4":-5,"rot5":15,"rot6":-15,"dil1":1.125,"dil2":1.075,"dil3":0.925,"dil4":1.025,"dil5":0.975,"dil6":0.875,"rots":[-25,25,5,-5,15,-15],"dils":[1.125,1.075,0.925,1.025,0.975,0.875],"loop_number":"NA","everTouched":null},{"id":"test","shape":"isoTrapezoid","outlier_type":2,"choice":4,"outlierPosition":4,"success":true,"majorityOfMostRegularShapes":true,"rt":2270.8999999995285,"rot1":15,"rot2":25,"rot3":5,"rot4":-5,"rot5":-15,"rot6":-25,"dil1":1.125,"dil2":1.025,"dil3":0.875,"dil4":1.075,"dil5":0.925,"dil6":0.975,"rots":[15,25,5,-5,-15,-25],"dils":[1.125,1.025,0.875,1.075,0.925,0.975],"loop_number":"NA","everTouched":null},{"id":"test","shape":"trapezoid","outlier_type":3,"choice":3,"outlierPosition":3,"success":true,"majorityOfMostRegularShapes":true,"rt":2902.799999999843,"rot1":-15,"rot2":-25,"rot3":15,"rot4":5,"rot5":-5,"rot6":25,"dil1":0.875,"dil2":1.125,"dil3":1.075,"dil4":0.925,"dil5":1.025,"dil6":0.975,"rots":[-15,-25,15,5,-5,25],"dils":[0.875,1.125,1.075,0.925,1.025,0.975],"loop_number":"NA","everTouched":null},{"id":"test","shape":"rustedHinge","outlier_type":2,"choice":4,"outlierPosition":5,"success":false,"majorityOfMostRegularShapes":true,"rt":3448.3000000000175,"rot1":15,"rot2":5,"rot3":-5,"rot4":-15,"rot5":25,"rot6":-25,"dil1":1.075,"dil2":0.975,"dil3":1.025,"dil4":0.925,"dil5":0.875,"dil6":1.125,"rots":[15,5,-5,-15,25,-25],"dils":[1.075,0.975,1.025,0.925,0.875,1.125],"loop_number":"NA","everTouched":null},{"id":"test","shape":"losange","outlier_type":3,"choice":0,"outlierPosition":0,"success":true,"majorityOfMostRegularShapes":true,"rt":2247.299999999086,"rot1":-25,"rot2":15,"rot3":-5,"rot4":-15,"rot5":5,"rot6":25,"dil1":1.025,"dil2":1.075,"dil3":0.925,"dil4":1.125,"dil5":0.975,"dil6":0.875,"rots":[-25,15,-5,-15,5,25],"dils":[1.025,1.075,0.925,1.125,0.975,0.875],"loop_number":"NA","everTouched":null},{"id":"test","shape":"random","outlier_type":2,"choice":0,"outlierPosition":2,"success":false,"majorityOfMostRegularShapes":true,"rt":10733.200000002398,"rot1":-5,"rot2":-25,"rot3":25,"rot4":15,"rot5":5,"rot6":-15,"dil1":1.075,"dil2":1.025,"dil3":0.875,"dil4":0.925,"dil5":0.975,"dil6":1.125,"rots":[-5,-25,25,15,5,-15],"dils":[1.075,1.025,0.875,0.925,0.975,1.125],"loop_number":"NA","everTouched":null},{"id":"test","shape":"rightKite","outlier_type":3,"choice":1,"outlierPosition":1,"success":true,"majorityOfMostRegularShapes":true,"rt":2872.1000000005006,"rot1":-15,"rot2":25,"rot3":-25,"rot4":-5,"rot5":15,"rot6":5,"dil1":1.025,"dil2":1.075,"dil3":0.975,"dil4":0.875,"dil5":1.125,"dil6":0.925,"rots":[-15,25,-25,-5,15,5],"dils":[1.025,1.075,0.975,0.875,1.125,0.925],"loop_number":"NA","everTouched":null},{"id":"test","shape":"trapezoid","outlier_type":2,"choice":4,"outlierPosition":4,"success":true,"majorityOfMostRegularShapes":true,"rt":2981.6999999966356,"rot1":-5,"rot2":5,"rot3":25,"rot4":-25,"rot5":15,"rot6":-15,"dil1":0.875,"dil2":1.125,"dil3":0.925,"dil4":1.025,"dil5":1.075,"dil6":0.975,"rots":[-5,5,25,-25,15,-15],"dils":[0.875,1.125,0.925,1.025,1.075,0.975],"loop_number":"NA","everTouched":null},{"id":"test","shape":"losange","outlier_type":0,"choice":3,"outlierPosition":3,"success":true,"majorityOfMostRegularShapes":true,"rt":3930.5999999996857,"rot1":25,"rot2":-25,"rot3":-5,"rot4":5,"rot5":-15,"rot6":15,"dil1":0.925,"dil2":0.875,"dil3":1.075,"dil4":1.025,"dil5":1.125,"dil6":0.975,"rots":[25,-25,-5,5,-15,15],"dils":[0.925,0.875,1.075,1.025,1.125,0.975],"loop_number":"NA","everTouched":null},{"id":"test","shape":"square","outlier_type":1,"choice":4,"outlierPosition":4,"success":true,"majorityOfMostRegularShapes":true,"rt":1768.8000000016473,"rot1":5,"rot2":-15,"rot3":15,"rot4":-25,"rot5":25,"rot6":-5,"dil1":1.025,"dil2":1.125,"dil3":0.925,"dil4":0.975,"dil5":1.075,"dil6":0.875,"rots":[5,-15,15,-25,25,-5],"dils":[1.025,1.125,0.925,0.975,1.075,0.875],"loop_number":"NA","everTouched":null},{"id":"test","shape":"isoTrapezoid","outlier_type":3,"choice":3,"outlierPosition":3,"success":true,"majorityOfMostRegularShapes":true,"rt":2180.7000000007974,"rot1":15,"rot2":-25,"rot3":-5,"rot4":-15,"rot5":25,"rot6":5,"dil1":1.075,"dil2":0.975,"dil3":0.875,"dil4":0.925,"dil5":1.025,"dil6":1.125,"rots":[15,-25,-5,-15,25,5],"dils":[1.075,0.975,0.875,0.925,1.025,1.125],"loop_number":"NA","everTouched":null},{"id":"test","shape":"rectangle","outlier_type":2,"choice":5,"outlierPosition":5,"success":true,"majorityOfMostRegularShapes":true,"rt":2270.599999999831,"rot1":15,"rot2":-25,"rot3":5,"rot4":25,"rot5":-5,"rot6":-15,"dil1":1.075,"dil2":0.875,"dil3":1.125,"dil4":1.025,"dil5":0.975,"dil6":0.925,"rots":[15,-25,5,25,-5,-15],"dils":[1.075,0.875,1.125,1.025,0.975,0.925],"loop_number":"NA","everTouched":null},{"id":"test","shape":"kite","outlier_type":3,"choice":0,"outlierPosition":0,"success":true,"majorityOfMostRegularShapes":true,"rt":5046.60000000149,"rot1":-5,"rot2":-25,"rot3":25,"rot4":15,"rot5":5,"rot6":-15,"dil1":0.925,"dil2":0.975,"dil3":1.125,"dil4":1.025,"dil5":0.875,"dil6":1.075,"rots":[-5,-25,25,15,5,-15],"dils":[0.925,0.975,1.125,1.025,0.875,1.075],"loop_number":"NA","everTouched":null},{"id":"test","shape":"rightKite","outlier_type":1,"choice":4,"outlierPosition":4,"success":true,"majorityOfMostRegularShapes":true,"rt":2186.8000000031316,"rot1":15,"rot2":-5,"rot3":25,"rot4":-25,"rot5":5,"rot6":-15,"dil1":0.875,"dil2":0.975,"dil3":1.025,"dil4":1.125,"dil5":0.925,"dil6":1.075,"rots":[15,-5,25,-25,5,-15],"dils":[0.875,0.975,1.025,1.125,0.925,1.075],"loop_number":"NA","everTouched":null},{"id":"test","shape":"random","outlier_type":3,"choice":0,"outlierPosition":0,"success":true,"majorityOfMostRegularShapes":true,"rt":3742.3000000017055,"rot1":15,"rot2":-5,"rot3":-15,"rot4":-25,"rot5":25,"rot6":5,"dil1":0.975,"dil2":1.075,"dil3":0.875,"dil4":1.125,"dil5":1.025,"dil6":0.925,"rots":[15,-5,-15,-25,25,5],"dils":[0.975,1.075,0.875,1.125,1.025,0.925],"loop_number":"NA","everTouched":null},{"id":"test","shape":"square","outlier_type":2,"choice":2,"outlierPosition":2,"success":true,"majorityOfMostRegularShapes":true,"rt":1677.79999999766,"rot1":-5,"rot2":-15,"rot3":15,"rot4":-25,"rot5":5,"rot6":25,"dil1":0.875,"dil2":1.025,"dil3":1.125,"dil4":1.075,"dil5":0.925,"dil6":0.975,"rots":[-5,-15,15,-25,5,25],"dils":[0.875,1.025,1.125,1.075,0.925,0.975],"loop_number":"NA","everTouched":null},{"id":"test","shape":"trapezoid","outlier_type":1,"choice":1,"outlierPosition":1,"success":true,"majorityOfMostRegularShapes":true,"rt":2701.9000000000233,"rot1":-15,"rot2":15,"rot3":-25,"rot4":-5,"rot5":5,"rot6":25,"dil1":0.875,"dil2":1.025,"dil3":1.125,"dil4":0.925,"dil5":0.975,"dil6":1.075,"rots":[-15,15,-25,-5,5,25],"dils":[0.875,1.025,1.125,0.925,0.975,1.075],"loop_number":"NA","everTouched":null},{"id":"test","shape":"parallelogram","outlier_type":0,"choice":5,"outlierPosition":5,"success":true,"majorityOfMostRegularShapes":true,"rt":2165.6999999977415,"rot1":-15,"rot2":15,"rot3":5,"rot4":-5,"rot5":-25,"rot6":25,"dil1":1.025,"dil2":0.875,"dil3":0.925,"dil4":0.975,"dil5":1.075,"dil6":1.125,"rots":[-15,15,5,-5,-25,25],"dils":[1.025,0.875,0.925,0.975,1.075,1.125],"loop_number":"NA","everTouched":null},{"id":"test","shape":"losange","outlier_type":1,"choice":4,"outlierPosition":4,"success":true,"majorityOfMostRegularShapes":true,"rt":4744.699999999284,"rot1":-5,"rot2":-15,"rot3":5,"rot4":15,"rot5":-25,"rot6":25,"dil1":0.925,"dil2":1.075,"dil3":1.025,"dil4":0.875,"dil5":1.125,"dil6":0.975,"rots":[-5,-15,5,15,-25,25],"dils":[0.925,1.075,1.025,0.875,1.125,0.975],"loop_number":"NA","everTouched":null},{"id":"test","shape":"kite","outlier_type":2,"choice":0,"outlierPosition":0,"success":true,"majorityOfMostRegularShapes":true,"rt":3903.5000000003492,"rot1":-5,"rot2":25,"rot3":-15,"rot4":15,"rot5":5,"rot6":-25,"dil1":1.025,"dil2":0.925,"dil3":0.875,"dil4":1.075,"dil5":1.125,"dil6":0.975,"rots":[-5,25,-15,15,5,-25],"dils":[1.025,0.925,0.875,1.075,1.125,0.975],"loop_number":"NA","everTouched":null},{"id":"test","shape":"parallelogram","outlier_type":3,"choice":3,"outlierPosition":3,"success":true,"majorityOfMostRegularShapes":true,"rt":1822.9000000028464,"rot1":-25,"rot2":15,"rot3":25,"rot4":-5,"rot5":-15,"rot6":5,"dil1":1.075,"dil2":0.925,"dil3":1.025,"dil4":0.975,"dil5":1.125,"dil6":0.875,"rots":[-25,15,25,-5,-15,5],"dils":[1.075,0.925,1.025,0.975,1.125,0.875],"loop_number":"NA","everTouched":null},{"id":"test","shape":"random","outlier_type":1,"choice":0,"outlierPosition":0,"success":true,"majorityOfMostRegularShapes":true,"rt":4324.399999997695,"rot1":-25,"rot2":-5,"rot3":15,"rot4":-15,"rot5":25,"rot6":5,"dil1":1.025,"dil2":0.925,"dil3":1.125,"dil4":0.975,"dil5":0.875,"dil6":1.075,"rots":[-25,-5,15,-15,25,5],"dils":[1.025,0.925,1.125,0.975,0.875,1.075],"loop_number":"NA","everTouched":null},{"id":"test","shape":"parallelogram","outlier_type":2,"choice":0,"outlierPosition":0,"success":true,"majorityOfMostRegularShapes":true,"rt":1728.6000000021886,"rot1":25,"rot2":5,"rot3":-15,"rot4":15,"rot5":-25,"rot6":-5,"dil1":0.975,"dil2":1.025,"dil3":1.075,"dil4":1.125,"dil5":0.875,"dil6":0.925,"rots":[25,5,-15,15,-25,-5],"dils":[0.975,1.025,1.075,1.125,0.875,0.925],"loop_number":"NA","everTouched":null},{"id":"test","shape":"kite","outlier_type":1,"choice":3,"outlierPosition":3,"success":true,"majorityOfMostRegularShapes":true,"rt":3873.4999999978463,"rot1":25,"rot2":15,"rot3":5,"rot4":-25,"rot5":-5,"rot6":-15,"dil1":0.975,"dil2":0.875,"dil3":0.925,"dil4":1.025,"dil5":1.125,"dil6":1.075,"rots":[25,15,5,-25,-5,-15],"dils":[0.975,0.875,0.925,1.025,1.125,1.075],"loop_number":"NA","everTouched":null},{"id":"test","shape":"rightKite","outlier_type":0,"choice":2,"outlierPosition":2,"success":true,"majorityOfMostRegularShapes":true,"rt":8675.800000000861,"rot1":25,"rot2":-15,"rot3":5,"rot4":-25,"rot5":15,"rot6":-5,"dil1":1.025,"dil2":0.875,"dil3":0.925,"dil4":0.975,"dil5":1.075,"dil6":1.125,"rots":[25,-15,5,-25,15,-5],"dils":[1.025,0.875,0.925,0.975,1.075,1.125],"loop_number":"NA","everTouched":null},{"id":"test","shape":"rustedHinge","outlier_type":1,"choice":0,"outlierPosition":4,"success":false,"majorityOfMostRegularShapes":true,"rt":3960.4999999973807,"rot1":15,"rot2":-25,"rot3":25,"rot4":-15,"rot5":5,"rot6":-5,"dil1":0.875,"dil2":0.925,"dil3":1.025,"dil4":1.125,"dil5":0.975,"dil6":1.075,"rots":[15,-25,25,-15,5,-5],"dils":[0.875,0.925,1.025,1.125,0.975,1.075],"loop_number":"NA","everTouched":null},{"id":"test","shape":"hinge","outlier_type":2,"choice":1,"outlierPosition":1,"success":true,"majorityOfMostRegularShapes":true,"rt":2588.50000000163,"rot1":-5,"rot2":15,"rot3":25,"rot4":-15,"rot5":-25,"rot6":5,"dil1":0.875,"dil2":1.025,"dil3":0.975,"dil4":0.925,"dil5":1.075,"dil6":1.125,"rots":[-5,15,25,-15,-25,5],"dils":[0.875,1.025,0.975,0.925,1.075,1.125],"loop_number":"NA","everTouched":null},{"id":"test","shape":"isoTrapezoid","outlier_type":0,"choice":5,"outlierPosition":5,"success":true,"majorityOfMostRegularShapes":true,"rt":3295.399999999092,"rot1":15,"rot2":-5,"rot3":-25,"rot4":5,"rot5":25,"rot6":-15,"dil1":0.925,"dil2":1.025,"dil3":1.125,"dil4":0.975,"dil5":0.875,"dil6":1.075,"rots":[15,-5,-25,5,25,-15],"dils":[0.925,1.025,1.125,0.975,0.875,1.075],"loop_number":"NA","everTouched":null},{"id":"test","shape":"rightKite","outlier_type":2,"choice":0,"outlierPosition":0,"success":true,"majorityOfMostRegularShapes":true,"rt":3272.899999999965,"rot1":-25,"rot2":15,"rot3":5,"rot4":-5,"rot5":25,"rot6":-15,"dil1":1.025,"dil2":1.125,"dil3":0.875,"dil4":0.975,"dil5":1.075,"dil6":0.925,"rots":[-25,15,5,-5,25,-15],"dils":[1.025,1.125,0.875,0.975,1.075,0.925],"loop_number":"NA","everTouched":null},{"id":"test","shape":"rectangle","outlier_type":0,"choice":1,"outlierPosition":1,"success":true,"majorityOfMostRegularShapes":true,"rt":2731.599999999162,"rot1":-25,"rot2":15,"rot3":5,"rot4":25,"rot5":-15,"rot6":-5,"dil1":0.875,"dil2":1.125,"dil3":0.975,"dil4":1.075,"dil5":1.025,"dil6":0.925,"rots":[-25,15,5,25,-15,-5],"dils":[0.875,1.125,0.975,1.075,1.025,0.925],"loop_number":"NA","everTouched":null}],"desiredDistance":0.3,"trial_type":"oddball-grid","trial_index":3,"time_elapsed":308566,"internal_node_id":"0.0-3.0","ID":"mbujhc23l1"},{"success":true,"trial_type":"fullscreen","trial_index":4,"time_elapsed":314490,"internal_node_id":"0.0-4.0","ID":"mbujhc23l1"}]