[{"success":true,"trial_type":"fullscreen","trial_index":0,"time_elapsed":53078,"internal_node_id":"0.0-0.0","ID":"polnbybt6w"},{"results":[{"id":"train-images","shape":"6","outlier_type":"NA","choice":5,"outlierPosition":5,"success":true,"majorityOfMostRegularShapes":"NA","rt":11020.799999998417,"rot1":25,"rot2":-25,"rot3":-5,"rot4":15,"rot5":-15,"rot6":5,"dil1":1.075,"dil2":1.125,"dil3":0.975,"dil4":0.925,"dil5":0.875,"dil6":1.025,"rots":[25,-25,-5,15,-15,5],"dils":[1.075,1.125,0.975,0.925,0.875,1.025],"loop_number":1,"everTouched":null},{"id":"train-images","shape":"7","outlier_type":"NA","choice":2,"outlierPosition":2,"success":true,"majorityOfMostRegularShapes":"NA","rt":2004.8999999999069,"rot1":-25,"rot2":5,"rot3":25,"rot4":-5,"rot5":-15,"rot6":15,"dil1":1.125,"dil2":0.925,"dil3":0.975,"dil4":0.875,"dil5":1.075,"dil6":1.025,"rots":[-25,5,25,-5,-15,15],"dils":[1.125,0.925,0.975,0.875,1.075,1.025],"loop_number":1,"everTouched":null},{"id":"train-images","shape":"1","outlier_type":"NA","choice":2,"outlierPosition":2,"success":true,"majorityOfMostRegularShapes":"NA","rt":1343.3999999979278,"rot1":25,"rot2":-25,"rot3":-5,"rot4":5,"rot5":15,"rot6":-15,"dil1":1.075,"dil2":0.925,"dil3":0.875,"dil4":1.025,"dil5":1.125,"dil6":0.975,"rots":[25,-25,-5,5,15,-15],"dils":[1.075,0.925,0.875,1.025,1.125,0.975],"loop_number":1,"everTouched":null},{"id":"train-images","shape":"5","outlier_type":"NA","choice":5,"outlierPosition":5,"success":true,"majorityOfMostRegularShapes":"NA","rt":2704.8999999969965,"rot1":-25,"rot2":5,"rot3":-5,"rot4":15,"rot5":-15,"rot6":25,"dil1":1.025,"dil2":1.075,"dil3":0.975,"dil4":1.125,"dil5":0.875,"dil6":0.925,"rots":[-25,5,-5,15,-15,25],"dils":[1.025,1.075,0.975,1.125,0.875,0.925],"loop_number":1,"everTouched":null},{"id":"train-images","shape":"8","outlier_type":"NA","choice":5,"outlierPosition":5,"success":true,"majorityOfMostRegularShapes":"NA","rt":1401.7000000021653,"rot1":5,"rot2":-25,"rot3":-5,"rot4":-15,"rot5":25,"rot6":15,"dil1":0.975,"dil2":0.875,"dil3":1.025,"dil4":1.125,"dil5":0.925,"dil6":1.075,"rots":[5,-25,-5,-15,25,15],"dils":[0.975,0.875,1.025,1.125,0.925,1.075],"loop_number":1,"everTouched":null},{"id":"train-images","shape":"3","outlier_type":"NA","choice":2,"outlierPosition":2,"success":true,"majorityOfMostRegularShapes":"NA","rt":1135.8000000036554,"rot1":-25,"rot2":25,"rot3":5,"rot4":15,"rot5":-15,"rot6":-5,"dil1":0.975,"dil2":0.925,"dil3":1.125,"dil4":1.075,"dil5":0.875,"dil6":1.025,"rots":[-25,25,5,15,-15,-5],"dils":[0.975,0.925,1.125,1.075,0.875,1.025],"loop_number":1,"everTouched":null},{"id":"train-images","shape":"4","outlier_type":"NA","choice":0,"outlierPosition":0,"success":true,"majorityOfMostRegularShapes":"NA","rt":1779.7999999966123,"rot1":-25,"rot2":15,"rot3":-15,"rot4":25,"rot5":5,"rot6":-5,"dil1":0.875,"dil2":1.025,"dil3":1.075,"dil4":1.125,"dil5":0.925,"dil6":0.975,"rots":[-25,15,-15,25,5,-5],"dils":[0.875,1.025,1.075,1.125,0.925,0.975],"loop_number":1,"everTouched":null},{"id":"train-images","shape":"9","outlier_type":"NA","choice":4,"outlierPosition":4,"success":true,"majorityOfMostRegularShapes":"NA","rt":1281.9000000017695,"rot1":-5,"rot2":5,"rot3":25,"rot4":-25,"rot5":15,"rot6":-15,"dil1":0.975,"dil2":1.125,"dil3":0.925,"dil4":0.875,"dil5":1.075,"dil6":1.025,"rots":[-5,5,25,-25,15,-15],"dils":[0.975,1.125,0.925,0.875,1.075,1.025],"loop_number":1,"everTouched":null},{"id":"train-images","shape":"2","outlier_type":"NA","choice":0,"outlierPosition":0,"success":true,"majorityOfMostRegularShapes":"NA","rt":1499.9000000025262,"rot1":-25,"rot2":5,"rot3":-5,"rot4":25,"rot5":-15,"rot6":15,"dil1":0.925,"dil2":1.125,"dil3":0.875,"dil4":1.025,"dil5":1.075,"dil6":0.975,"rots":[-25,5,-5,25,-15,15],"dils":[0.925,1.125,0.875,1.025,1.075,0.975],"loop_number":1,"everTouched":null},{"id":"train-images","shape":"10","outlier_type":"NA","choice":3,"outlierPosition":3,"success":true,"majorityOfMostRegularShapes":"NA","rt":1378.6999999938416,"rot1":5,"rot2":25,"rot3":-15,"rot4":15,"rot5":-5,"rot6":-25,"dil1":1.025,"dil2":0.875,"dil3":0.925,"dil4":1.075,"dil5":1.125,"dil6":0.975,"rots":[5,25,-15,15,-5,-25],"dils":[1.025,0.875,0.925,1.075,1.125,0.975],"loop_number":1,"everTouched":null}],"trial_type":"oddball-grid-image","trial_index":1,"time_elapsed":126306,"internal_node_id":"0.0-1.0","ID":"polnbybt6w"},{"results":[{"id":"train","shape":null,"outlier_type":null,"choice":5,"outlierPosition":5,"success":true,"majorityOfMostRegularShapes":null,"rt":981.1000000045169,"rot1":15,"rot2":-5,"rot3":-25,"rot4":-15,"rot5":25,"rot6":5,"dil1":1.125,"dil2":1.075,"dil3":0.925,"dil4":1.025,"dil5":0.875,"dil6":0.975,"rots":[15,-5,-25,-15,25,5],"dils":[1.125,1.075,0.925,1.025,0.875,0.975],"loop_number":1,"everTouched":null},{"id":"train","shape":null,"outlier_type":null,"choice":2,"outlierPosition":2,"success":true,"majorityOfMostRegularShapes":null,"rt":1239.900000000489,"rot1":25,"rot2":-5,"rot3":15,"rot4":5,"rot5":-15,"rot6":-25,"dil1":0.875,"dil2":0.925,"dil3":1.025,"dil4":0.975,"dil5":1.125,"dil6":1.075,"rots":[25,-5,15,5,-15,-25],"dils":[0.875,0.925,1.025,0.975,1.125,1.075],"loop_number":1,"everTouched":null},{"id":"train","shape":null,"outlier_type":null,"choice":3,"outlierPosition":3,"success":true,"majorityOfMostRegularShapes":null,"rt":1450.299999996787,"rot1":5,"rot2":15,"rot3":-25,"rot4":25,"rot5":-5,"rot6":-15,"dil1":0.925,"dil2":1.075,"dil3":0.975,"dil4":0.875,"dil5":1.025,"dil6":1.125,"rots":[5,15,-25,25,-5,-15],"dils":[0.925,1.075,0.975,0.875,1.025,1.125],"loop_number":1,"everTouched":null},{"id":"train","shape":null,"outlier_type":null,"choice":0,"outlierPosition":0,"success":true,"majorityOfMostRegularShapes":null,"rt":1416.8999999965308,"rot1":-15,"rot2":5,"rot3":-5,"rot4":25,"rot5":-25,"rot6":15,"dil1":1.125,"dil2":0.975,"dil3":1.025,"dil4":1.075,"dil5":0.925,"dil6":0.875,"rots":[-15,5,-5,25,-25,15],"dils":[1.125,0.975,1.025,1.075,0.925,0.875],"loop_number":1,"everTouched":null},{"id":"train","shape":null,"outlier_type":null,"choice":5,"outlierPosition":5,"success":true,"majorityOfMostRegularShapes":null,"rt":1398.0999999985215,"rot1":15,"rot2":-25,"rot3":25,"rot4":5,"rot5":-15,"rot6":-5,"dil1":1.125,"dil2":1.075,"dil3":1.025,"dil4":0.925,"dil5":0.975,"dil6":0.875,"rots":[15,-25,25,5,-15,-5],"dils":[1.125,1.075,1.025,0.925,0.975,0.875],"loop_number":1,"everTouched":null},{"id":"train","shape":null,"outlier_type":null,"choice":4,"outlierPosition":4,"success":true,"majorityOfMostRegularShapes":null,"rt":2380.4999999993015,"rot1":5,"rot2":-5,"rot3":-25,"rot4":-15,"rot5":15,"rot6":25,"dil1":0.975,"dil2":1.025,"dil3":0.875,"dil4":0.925,"dil5":1.075,"dil6":1.125,"rots":[5,-5,-25,-15,15,25],"dils":[0.975,1.025,0.875,0.925,1.075,1.125],"loop_number":1,"everTouched":null}],"desiredDistance":0.3,"trial_type":"oddball-grid-easy","trial_index":2,"time_elapsed":146644,"internal_node_id":"0.0-2.0","ID":"polnbybt6w"},{"results":[{"id":"test","shape":"parallelogram","outlier_type":3,"choice":4,"outlierPosition":4,"success":true,"majorityOfMostRegularShapes":true,"rt":4130.300000004354,"rot1":-15,"rot2":5,"rot3":-25,"rot4":25,"rot5":15,"rot6":-5,"dil1":0.925,"dil2":1.025,"dil3":1.125,"dil4":0.975,"dil5":0.875,"dil6":1.075,"rots":[-15,5,-25,25,15,-5],"dils":[0.925,1.025,1.125,0.975,0.875,1.075],"loop_number":"NA","everTouched":null},{"id":"test","shape":"rectangle","outlier_type":2,"choice":4,"outlierPosition":4,"success":true,"majorityOfMostRegularShapes":true,"rt":2692.9000000018277,"rot1":-5,"rot2":-15,"rot3":5,"rot4":25,"rot5":15,"rot6":-25,"dil1":0.925,"dil2":1.125,"dil3":0.875,"dil4":1.075,"dil5":0.975,"dil6":1.025,"rots":[-5,-15,5,25,15,-25],"dils":[0.925,1.125,0.875,1.075,0.975,1.025],"loop_number":"NA","everTouched":null},{"id":"test","shape":"random","outlier_type":0,"choice":1,"outlierPosition":1,"success":true,"majorityOfMostRegularShapes":true,"rt":5563.399999999092,"rot1":15,"rot2":-5,"rot3":-15,"rot4":5,"rot5":-25,"rot6":25,"dil1":0.925,"dil2":1.075,"dil3":1.125,"dil4":0.975,"dil5":1.025,"dil6":0.875,"rots":[15,-5,-15,5,-25,25],"dils":[0.925,1.075,1.125,0.975,1.025,0.875],"loop_number":"NA","everTouched":null},{"id":"test","shape":"trapezoid","outlier_type":1,"choice":0,"outlierPosition":0,"success":true,"majorityOfMostRegularShapes":true,"rt":4372.499999997672,"rot1":5,"rot2":-5,"rot3":25,"rot4":-25,"rot5":15,"rot6":-15,"dil1":0.975,"dil2":1.075,"dil3":0.925,"dil4":1.125,"dil5":1.025,"dil6":0.875,"rots":[5,-5,25,-25,15,-15],"dils":[0.975,1.075,0.925,1.125,1.025,0.875],"loop_number":"NA","everTouched":null},{"id":"test","shape":"isoTrapezoid","outlier_type":3,"choice":5,"outlierPosition":5,"success":true,"majorityOfMostRegularShapes":true,"rt":5024.299999997311,"rot1":5,"rot2":-5,"rot3":-15,"rot4":25,"rot5":-25,"rot6":15,"dil1":1.125,"dil2":1.075,"dil3":0.925,"dil4":0.875,"dil5":1.025,"dil6":0.975,"rots":[5,-5,-15,25,-25,15],"dils":[1.125,1.075,0.925,0.875,1.025,0.975],"loop_number":"NA","everTouched":null},{"id":"test","shape":"random","outlier_type":1,"choice":5,"outlierPosition":5,"success":true,"majorityOfMostRegularShapes":true,"rt":6186.799999995856,"rot1":-25,"rot2":5,"rot3":-15,"rot4":-5,"rot5":25,"rot6":15,"dil1":0.925,"dil2":0.875,"dil3":0.975,"dil4":1.025,"dil5":1.075,"dil6":1.125,"rots":[-25,5,-15,-5,25,15],"dils":[0.925,0.875,0.975,1.025,1.075,1.125],"loop_number":"NA","everTouched":null},{"id":"test","shape":"trapezoid","outlier_type":2,"choice":2,"outlierPosition":2,"success":true,"majorityOfMostRegularShapes":true,"rt":6096.000000005006,"rot1":25,"rot2":5,"rot3":-5,"rot4":-15,"rot5":15,"rot6":-25,"dil1":1.075,"dil2":0.925,"dil3":0.975,"dil4":1.025,"dil5":1.125,"dil6":0.875,"rots":[25,5,-5,-15,15,-25],"dils":[1.075,0.925,0.975,1.025,1.125,0.875],"loop_number":"NA","everTouched":null},{"id":"test","shape":"hinge","outlier_type":0,"choice":2,"outlierPosition":2,"success":true,"majorityOfMostRegularShapes":true,"rt":7784.9999999962165,"rot1":25,"rot2":-5,"rot3":15,"rot4":5,"rot5":-15,"rot6":-25,"dil1":1.125,"dil2":0.875,"dil3":1.025,"dil4":0.975,"dil5":0.925,"dil6":1.075,"rots":[25,-5,15,5,-15,-25],"dils":[1.125,0.875,1.025,0.975,0.925,1.075],"loop_number":"NA","everTouched":null},{"id":"test","shape":"kite","outlier_type":2,"choice":4,"outlierPosition":4,"success":true,"majorityOfMostRegularShapes":true,"rt":3962.2999999992317,"rot1":25,"rot2":-5,"rot3":-15,"rot4":15,"rot5":5,"rot6":-25,"dil1":1.025,"dil2":0.875,"dil3":1.075,"dil4":0.975,"dil5":1.125,"dil6":0.925,"rots":[25,-5,-15,15,5,-25],"dils":[1.025,0.875,1.075,0.975,1.125,0.925],"loop_number":"NA","everTouched":null},{"id":"test","shape":"rustedHinge","outlier_type":1,"choice":0,"outlierPosition":0,"success":true,"majorityOfMostRegularShapes":true,"rt":4674.200000001292,"rot1":25,"rot2":-5,"rot3":15,"rot4":5,"rot5":-25,"rot6":-15,"dil1":0.875,"dil2":1.125,"dil3":0.925,"dil4":1.075,"dil5":0.975,"dil6":1.025,"rots":[25,-5,15,5,-25,-15],"dils":[0.875,1.125,0.925,1.075,0.975,1.025],"loop_number":"NA","everTouched":null},{"id":"test","shape":"rightKite","outlier_type":2,"choice":3,"outlierPosition":2,"success":false,"majorityOfMostRegularShapes":true,"rt":6241.699999998673,"rot1":-15,"rot2":-25,"rot3":-5,"rot4":25,"rot5":15,"rot6":5,"dil1":0.875,"dil2":0.925,"dil3":1.025,"dil4":1.075,"dil5":0.975,"dil6":1.125,"rots":[-15,-25,-5,25,15,5],"dils":[0.875,0.925,1.025,1.075,0.975,1.125],"loop_number":"NA","everTouched":null},{"id":"test","shape":"rustedHinge","outlier_type":0,"choice":1,"outlierPosition":1,"success":true,"majorityOfMostRegularShapes":true,"rt":7070.900000006077,"rot1":-5,"rot2":5,"rot3":-15,"rot4":-25,"rot5":15,"rot6":25,"dil1":1.025,"dil2":0.875,"dil3":1.125,"dil4":0.975,"dil5":1.075,"dil6":0.925,"rots":[-5,5,-15,-25,15,25],"dils":[1.025,0.875,1.125,0.975,1.075,0.925],"loop_number":"NA","everTouched":null},{"id":"test","shape":"kite","outlier_type":1,"choice":2,"outlierPosition":2,"success":true,"majorityOfMostRegularShapes":true,"rt":5122.400000000198,"rot1":5,"rot2":-25,"rot3":-5,"rot4":25,"rot5":15,"rot6":-15,"dil1":1.125,"dil2":0.975,"dil3":1.025,"dil4":0.875,"dil5":0.925,"dil6":1.075,"rots":[5,-25,-5,25,15,-15],"dils":[1.125,0.975,1.025,0.875,0.925,1.075],"loop_number":"NA","everTouched":null},{"id":"test","shape":"square","outlier_type":2,"choice":5,"outlierPosition":5,"success":true,"majorityOfMostRegularShapes":true,"rt":3512.6000000018394,"rot1":25,"rot2":5,"rot3":-15,"rot4":-25,"rot5":-5,"rot6":15,"dil1":1.125,"dil2":0.875,"dil3":1.025,"dil4":1.075,"dil5":0.975,"dil6":0.925,"rots":[25,5,-15,-25,-5,15],"dils":[1.125,0.875,1.025,1.075,0.975,0.925],"loop_number":"NA","everTouched":null},{"id":"test","shape":"rectangle","outlier_type":0,"choice":5,"outlierPosition":5,"success":true,"majorityOfMostRegularShapes":true,"rt":2183.00000000454,"rot1":25,"rot2":-5,"rot3":5,"rot4":-25,"rot5":15,"rot6":-15,"dil1":1.025,"dil2":1.125,"dil3":0.875,"dil4":0.975,"dil5":1.075,"dil6":0.925,"rots":[25,-5,5,-25,15,-15],"dils":[1.025,1.125,0.875,0.975,1.075,0.925],"loop_number":"NA","everTouched":null},{"id":"test","shape":"hinge","outlier_type":1,"choice":3,"outlierPosition":3,"success":true,"majorityOfMostRegularShapes":true,"rt":5727.499999993597,"rot1":15,"rot2":-25,"rot3":-15,"rot4":-5,"rot5":25,"rot6":5,"dil1":1.025,"dil2":1.125,"dil3":0.875,"dil4":0.975,"dil5":0.925,"dil6":1.075,"rots":[15,-25,-15,-5,25,5],"dils":[1.025,1.125,0.875,0.975,0.925,1.075],"loop_number":"NA","everTouched":null},{"id":"test","shape":"rustedHinge","outlier_type":2,"choice":5,"outlierPosition":5,"success":true,"majorityOfMostRegularShapes":true,"rt":6028.300000005402,"rot1":-25,"rot2":-5,"rot3":5,"rot4":15,"rot5":-15,"rot6":25,"dil1":0.875,"dil2":0.975,"dil3":0.925,"dil4":1.025,"dil5":1.125,"dil6":1.075,"rots":[-25,-5,5,15,-15,25],"dils":[0.875,0.975,0.925,1.025,1.125,1.075],"loop_number":"NA","everTouched":null},{"id":"test","shape":"rightKite","outlier_type":3,"choice":1,"outlierPosition":4,"success":false,"majorityOfMostRegularShapes":true,"rt":6166.100000002189,"rot1":5,"rot2":15,"rot3":25,"rot4":-25,"rot5":-15,"rot6":-5,"dil1":0.875,"dil2":1.125,"dil3":1.025,"dil4":0.925,"dil5":0.975,"dil6":1.075,"rots":[5,15,25,-25,-15,-5],"dils":[0.875,1.125,1.025,0.925,0.975,1.075],"loop_number":"NA","everTouched":null},{"id":"test","shape":"losange","outlier_type":1,"choice":4,"outlierPosition":4,"success":true,"majorityOfMostRegularShapes":true,"rt":4792.800000002899,"rot1":-15,"rot2":-25,"rot3":15,"rot4":25,"rot5":-5,"rot6":5,"dil1":1.125,"dil2":0.925,"dil3":1.025,"dil4":0.975,"dil5":0.875,"dil6":1.075,"rots":[-15,-25,15,25,-5,5],"dils":[1.125,0.925,1.025,0.975,0.875,1.075],"loop_number":"NA","everTouched":null},{"id":"test","shape":"parallelogram","outlier_type":2,"choice":1,"outlierPosition":1,"success":true,"majorityOfMostRegularShapes":true,"rt":4761.800000000221,"rot1":25,"rot2":-25,"rot3":-5,"rot4":-15,"rot5":15,"rot6":5,"dil1":1.025,"dil2":1.125,"dil3":0.975,"dil4":0.875,"dil5":0.925,"dil6":1.075,"rots":[25,-25,-5,-15,15,5],"dils":[1.025,1.125,0.975,0.875,0.925,1.075],"loop_number":"NA","everTouched":null},{"id":"test","shape":"losange","outlier_type":0,"choice":1,"outlierPosition":5,"success":false,"majorityOfMostRegularShapes":true,"rt":6162.700000000768,"rot1":-5,"rot2":25,"rot3":15,"rot4":5,"rot5":-15,"rot6":-25,"dil1":1.075,"dil2":0.925,"dil3":0.975,"dil4":0.875,"dil5":1.025,"dil6":1.125,"rots":[-5,25,15,5,-15,-25],"dils":[1.075,0.925,0.975,0.875,1.025,1.125],"loop_number":"NA","everTouched":null},{"id":"test","shape":"square","outlier_type":3,"choice":5,"outlierPosition":5,"success":true,"majorityOfMostRegularShapes":true,"rt":2344.2999999970198,"rot1":-5,"rot2":-25,"rot3":25,"rot4":5,"rot5":15,"rot6":-15,"dil1":0.975,"dil2":0.875,"dil3":0.925,"dil4":1.075,"dil5":1.025,"dil6":1.125,"rots":[-5,-25,25,5,15,-15],"dils":[0.975,0.875,0.925,1.075,1.025,1.125],"loop_number":"NA","everTouched":null},{"id":"test","shape":"trapezoid","outlier_type":0,"choice":2,"outlierPosition":2,"success":true,"majorityOfMostRegularShapes":true,"rt":3846.300000004703,"rot1":5,"rot2":25,"rot3":-25,"rot4":15,"rot5":-5,"rot6":-15,"dil1":0.875,"dil2":1.125,"dil3":0.925,"dil4":1.075,"dil5":0.975,"dil6":1.025,"rots":[5,25,-25,15,-5,-15],"dils":[0.875,1.125,0.925,1.075,0.975,1.025],"loop_number":"NA","everTouched":null},{"id":"test","shape":"random","outlier_type":2,"choice":1,"outlierPosition":4,"success":false,"majorityOfMostRegularShapes":true,"rt":7344.29999999702,"rot1":5,"rot2":-15,"rot3":25,"rot4":-25,"rot5":15,"rot6":-5,"dil1":0.975,"dil2":0.925,"dil3":1.125,"dil4":1.075,"dil5":1.025,"dil6":0.875,"rots":[5,-15,25,-25,15,-5],"dils":[0.975,0.925,1.125,1.075,1.025,0.875],"loop_number":"NA","everTouched":null},{"id":"test","shape":"square","outlier_type":0,"choice":4,"outlierPosition":4,"success":true,"majorityOfMostRegularShapes":true,"rt":2332.9000000012456,"rot1":-5,"rot2":5,"rot3":15,"rot4":25,"rot5":-15,"rot6":-25,"dil1":1.125,"dil2":1.075,"dil3":0.925,"dil4":0.975,"dil5":0.875,"dil6":1.025,"rots":[-5,5,15,25,-15,-25],"dils":[1.125,1.075,0.925,0.975,0.875,1.025],"loop_number":"NA","everTouched":null},{"id":"test","shape":"parallelogram","outlier_type":1,"choice":1,"outlierPosition":1,"success":true,"majorityOfMostRegularShapes":true,"rt":3587.8999999986263,"rot1":15,"rot2":25,"rot3":-15,"rot4":-25,"rot5":-5,"rot6":5,"dil1":1.125,"dil2":0.925,"dil3":1.075,"dil4":0.975,"dil5":0.875,"dil6":1.025,"rots":[15,25,-15,-25,-5,5],"dils":[1.125,0.925,1.075,0.975,0.875,1.025],"loop_number":"NA","everTouched":null},{"id":"test","shape":"isoTrapezoid","outlier_type":2,"choice":1,"outlierPosition":1,"success":true,"majorityOfMostRegularShapes":true,"rt":5745.699999999488,"rot1":-5,"rot2":-15,"rot3":-25,"rot4":15,"rot5":25,"rot6":5,"dil1":0.975,"dil2":0.875,"dil3":1.125,"dil4":1.025,"dil5":1.075,"dil6":0.925,"rots":[-5,-15,-25,15,25,5],"dils":[0.975,0.875,1.125,1.025,1.075,0.925],"loop_number":"NA","everTouched":null},{"id":"test","shape":"rectangle","outlier_type":3,"choice":5,"outlierPosition":5,"success":true,"majorityOfMostRegularShapes":true,"rt":2639.900000001944,"rot1":-15,"rot2":5,"rot3":25,"rot4":-5,"rot5":-25,"rot6":15,"dil1":0.975,"dil2":1.125,"dil3":0.925,"dil4":1.075,"dil5":0.875,"dil6":1.025,"rots":[-15,5,25,-5,-25,15],"dils":[0.975,1.125,0.925,1.075,0.875,1.025],"loop_number":"NA","everTouched":null},{"id":"test","shape":"hinge","outlier_type":2,"choice":1,"outlierPosition":1,"success":true,"majorityOfMostRegularShapes":true,"rt":5137.000000002445,"rot1":-25,"rot2":15,"rot3":-5,"rot4":-15,"rot5":5,"rot6":25,"dil1":0.925,"dil2":1.025,"dil3":0.975,"dil4":1.125,"dil5":1.075,"dil6":0.875,"rots":[-25,15,-5,-15,5,25],"dils":[0.925,1.025,0.975,1.125,1.075,0.875],"loop_number":"NA","everTouched":null},{"id":"test","shape":"rightKite","outlier_type":0,"choice":0,"outlierPosition":1,"success":false,"majorityOfMostRegularShapes":true,"rt":4668.700000001991,"rot1":-25,"rot2":25,"rot3":5,"rot4":-15,"rot5":-5,"rot6":15,"dil1":1.025,"dil2":0.975,"dil3":0.925,"dil4":1.075,"dil5":1.125,"dil6":0.875,"rots":[-25,25,5,-15,-5,15],"dils":[1.025,0.975,0.925,1.075,1.125,0.875],"loop_number":"NA","everTouched":null},{"id":"test","shape":"kite","outlier_type":3,"choice":0,"outlierPosition":5,"success":false,"majorityOfMostRegularShapes":true,"rt":6598.500000000058,"rot1":5,"rot2":-5,"rot3":-15,"rot4":-25,"rot5":15,"rot6":25,"dil1":1.125,"dil2":0.975,"dil3":1.025,"dil4":1.075,"dil5":0.925,"dil6":0.875,"rots":[5,-5,-15,-25,15,25],"dils":[1.125,0.975,1.025,1.075,0.925,0.875],"loop_number":"NA","everTouched":null},{"id":"test","shape":"isoTrapezoid","outlier_type":0,"choice":0,"outlierPosition":0,"success":true,"majorityOfMostRegularShapes":true,"rt":2763.8999999981024,"rot1":-15,"rot2":5,"rot3":15,"rot4":-5,"rot5":25,"rot6":-25,"dil1":0.925,"dil2":1.025,"dil3":0.875,"dil4":1.075,"dil5":0.975,"dil6":1.125,"rots":[-15,5,15,-5,25,-25],"dils":[0.925,1.025,0.875,1.075,0.975,1.125],"loop_number":"NA","everTouched":null},{"id":"test","shape":"trapezoid","outlier_type":3,"choice":2,"outlierPosition":2,"success":true,"majorityOfMostRegularShapes":true,"rt":3600.8999999976368,"rot1":-15,"rot2":-25,"rot3":5,"rot4":15,"rot5":-5,"rot6":25,"dil1":0.925,"dil2":1.125,"dil3":1.075,"dil4":0.875,"dil5":0.975,"dil6":1.025,"rots":[-15,-25,5,15,-5,25],"dils":[0.925,1.125,1.075,0.875,0.975,1.025],"loop_number":"NA","everTouched":null},{"id":"test","shape":"kite","outlier_type":0,"choice":5,"outlierPosition":1,"success":false,"majorityOfMostRegularShapes":true,"rt":4484.400000001187,"rot1":-5,"rot2":5,"rot3":-25,"rot4":15,"rot5":-15,"rot6":25,"dil1":1.075,"dil2":1.025,"dil3":1.125,"dil4":0.925,"dil5":0.875,"dil6":0.975,"rots":[-5,5,-25,15,-15,25],"dils":[1.075,1.025,1.125,0.925,0.875,0.975],"loop_number":"NA","everTouched":null},{"id":"test","shape":"rectangle","outlier_type":1,"choice":0,"outlierPosition":0,"success":true,"majorityOfMostRegularShapes":true,"rt":2804.0000000037253,"rot1":15,"rot2":25,"rot3":5,"rot4":-25,"rot5":-15,"rot6":-5,"dil1":1.125,"dil2":1.025,"dil3":1.075,"dil4":0.975,"dil5":0.925,"dil6":0.875,"rots":[15,25,5,-25,-15,-5],"dils":[1.125,1.025,1.075,0.975,0.925,0.875],"loop_number":"NA","everTouched":null},{"id":"test","shape":"hinge","outlier_type":3,"choice":1,"outlierPosition":5,"success":false,"majorityOfMostRegularShapes":true,"rt":3566.3000000058673,"rot1":-5,"rot2":-25,"rot3":25,"rot4":-15,"rot5":15,"rot6":5,"dil1":1.025,"dil2":0.975,"dil3":1.075,"dil4":0.875,"dil5":1.125,"dil6":0.925,"rots":[-5,-25,25,-15,15,5],"dils":[1.025,0.975,1.075,0.875,1.125,0.925],"loop_number":"NA","everTouched":null},{"id":"test","shape":"rightKite","outlier_type":1,"choice":2,"outlierPosition":2,"success":true,"majorityOfMostRegularShapes":true,"rt":6649.499999999534,"rot1":-5,"rot2":5,"rot3":-25,"rot4":15,"rot5":25,"rot6":-15,"dil1":0.925,"dil2":1.075,"dil3":0.975,"dil4":1.025,"dil5":0.875,"dil6":1.125,"rots":[-5,5,-25,15,25,-15],"dils":[0.925,1.075,0.975,1.025,0.875,1.125],"loop_number":"NA","everTouched":null},{"id":"test","shape":"parallelogram","outlier_type":0,"choice":1,"outlierPosition":1,"success":true,"majorityOfMostRegularShapes":true,"rt":3054.4000000008964,"rot1":-5,"rot2":25,"rot3":-15,"rot4":-25,"rot5":5,"rot6":15,"dil1":0.975,"dil2":1.075,"dil3":0.925,"dil4":1.025,"dil5":1.125,"dil6":0.875,"rots":[-5,25,-15,-25,5,15],"dils":[0.975,1.075,0.925,1.025,1.125,0.875],"loop_number":"NA","everTouched":null},{"id":"test","shape":"isoTrapezoid","outlier_type":1,"choice":3,"outlierPosition":3,"success":true,"majorityOfMostRegularShapes":true,"rt":6357.199999998556,"rot1":5,"rot2":25,"rot3":15,"rot4":-25,"rot5":-15,"rot6":-5,"dil1":0.925,"dil2":1.125,"dil3":1.025,"dil4":1.075,"dil5":0.975,"dil6":0.875,"rots":[5,25,15,-25,-15,-5],"dils":[0.925,1.125,1.025,1.075,0.975,0.875],"loop_number":"NA","everTouched":null},{"id":"test","shape":"rustedHinge","outlier_type":3,"choice":4,"outlierPosition":4,"success":true,"majorityOfMostRegularShapes":true,"rt":3362.7999999953317,"rot1":-15,"rot2":-25,"rot3":15,"rot4":-5,"rot5":5,"rot6":25,"dil1":0.875,"dil2":1.025,"dil3":1.125,"dil4":0.925,"dil5":0.975,"dil6":1.075,"rots":[-15,-25,15,-5,5,25],"dils":[0.875,1.025,1.125,0.925,0.975,1.075],"loop_number":"NA","everTouched":null},{"id":"test","shape":"square","outlier_type":1,"choice":4,"outlierPosition":4,"success":true,"majorityOfMostRegularShapes":true,"rt":2388.999999995576,"rot1":-25,"rot2":-15,"rot3":5,"rot4":25,"rot5":-5,"rot6":15,"dil1":0.975,"dil2":0.925,"dil3":1.025,"dil4":1.125,"dil5":1.075,"dil6":0.875,"rots":[-25,-15,5,25,-5,15],"dils":[0.975,0.925,1.025,1.125,1.075,0.875],"loop_number":"NA","everTouched":null},{"id":"test","shape":"random","outlier_type":3,"choice":3,"outlierPosition":5,"success":false,"majorityOfMostRegularShapes":true,"rt":5682.800000002317,"rot1":25,"rot2":5,"rot3":-5,"rot4":-25,"rot5":-15,"rot6":15,"dil1":1.025,"dil2":0.975,"dil3":0.925,"dil4":0.875,"dil5":1.125,"dil6":1.075,"rots":[25,5,-5,-25,-15,15],"dils":[1.025,0.975,0.925,0.875,1.125,1.075],"loop_number":"NA","everTouched":null},{"id":"test","shape":"losange","outlier_type":2,"choice":1,"outlierPosition":1,"success":true,"majorityOfMostRegularShapes":true,"rt":3730.9000000022934,"rot1":-15,"rot2":25,"rot3":15,"rot4":-5,"rot5":-25,"rot6":5,"dil1":0.875,"dil2":0.925,"dil3":1.075,"dil4":1.125,"dil5":0.975,"dil6":1.025,"rots":[-15,25,15,-5,-25,5],"dils":[0.875,0.925,1.075,1.125,0.975,1.025],"loop_number":"NA","everTouched":null},{"id":"test","shape":"losange","outlier_type":3,"choice":4,"outlierPosition":4,"success":true,"majorityOfMostRegularShapes":true,"rt":3609.10000000149,"rot1":-15,"rot2":-5,"rot3":25,"rot4":5,"rot5":15,"rot6":-25,"dil1":1.025,"dil2":0.975,"dil3":1.125,"dil4":1.075,"dil5":0.875,"dil6":0.925,"rots":[-15,-5,25,5,15,-25],"dils":[1.025,0.975,1.125,1.075,0.875,0.925],"loop_number":"NA","everTouched":null}],"desiredDistance":0.3,"trial_type":"oddball-grid","trial_index":3,"time_elapsed":426060,"internal_node_id":"0.0-3.0","ID":"polnbybt6w"},{"success":true,"trial_type":"fullscreen","trial_index":4,"time_elapsed":431633,"internal_node_id":"0.0-4.0","ID":"polnbybt6w"}]