[{"success":true,"trial_type":"fullscreen","trial_index":0,"time_elapsed":17942,"internal_node_id":"0.0-0.0","ID":"hc9glnfu4t"},{"results":[{"id":"train-images","shape":"3","outlier_type":"NA","choice":0,"outlierPosition":0,"success":true,"majorityOfMostRegularShapes":"NA","rt":9229.60000000603,"rot1":25,"rot2":-25,"rot3":15,"rot4":-5,"rot5":-15,"rot6":5,"dil1":1.125,"dil2":1.075,"dil3":0.975,"dil4":0.875,"dil5":1.025,"dil6":0.925,"rots":[25,-25,15,-5,-15,5],"dils":[1.125,1.075,0.975,0.875,1.025,0.925],"loop_number":1,"everTouched":null},{"id":"train-images","shape":"1","outlier_type":"NA","choice":1,"outlierPosition":1,"success":true,"majorityOfMostRegularShapes":"NA","rt":3832.299999994575,"rot1":-5,"rot2":-25,"rot3":-15,"rot4":5,"rot5":15,"rot6":25,"dil1":1.075,"dil2":1.125,"dil3":1.025,"dil4":0.925,"dil5":0.875,"dil6":0.975,"rots":[-5,-25,-15,5,15,25],"dils":[1.075,1.125,1.025,0.925,0.875,0.975],"loop_number":1,"everTouched":null},{"id":"train-images","shape":"10","outlier_type":"NA","choice":5,"outlierPosition":5,"success":true,"majorityOfMostRegularShapes":"NA","rt":1407.099999996717,"rot1":25,"rot2":5,"rot3":15,"rot4":-15,"rot5":-25,"rot6":-5,"dil1":0.925,"dil2":1.075,"dil3":1.125,"dil4":0.875,"dil5":0.975,"dil6":1.025,"rots":[25,5,15,-15,-25,-5],"dils":[0.925,1.075,1.125,0.875,0.975,1.025],"loop_number":1,"everTouched":null},{"id":"train-images","shape":"6","outlier_type":"NA","choice":3,"outlierPosition":3,"success":true,"majorityOfMostRegularShapes":"NA","rt":1705.6000000011409,"rot1":-15,"rot2":-5,"rot3":25,"rot4":15,"rot5":-25,"rot6":5,"dil1":0.925,"dil2":1.025,"dil3":1.075,"dil4":1.125,"dil5":0.975,"dil6":0.875,"rots":[-15,-5,25,15,-25,5],"dils":[0.925,1.025,1.075,1.125,0.975,0.875],"loop_number":1,"everTouched":null},{"id":"train-images","shape":"5","outlier_type":"NA","choice":0,"outlierPosition":0,"success":true,"majorityOfMostRegularShapes":"NA","rt":1310.2000000071712,"rot1":25,"rot2":-5,"rot3":-15,"rot4":15,"rot5":-25,"rot6":5,"dil1":1.075,"dil2":0.975,"dil3":0.925,"dil4":1.025,"dil5":1.125,"dil6":0.875,"rots":[25,-5,-15,15,-25,5],"dils":[1.075,0.975,0.925,1.025,1.125,0.875],"loop_number":1,"everTouched":null},{"id":"train-images","shape":"2","outlier_type":"NA","choice":0,"outlierPosition":0,"success":true,"majorityOfMostRegularShapes":"NA","rt":1321.4000000007218,"rot1":-15,"rot2":-5,"rot3":-25,"rot4":15,"rot5":25,"rot6":5,"dil1":1.075,"dil2":0.875,"dil3":0.975,"dil4":1.025,"dil5":0.925,"dil6":1.125,"rots":[-15,-5,-25,15,25,5],"dils":[1.075,0.875,0.975,1.025,0.925,1.125],"loop_number":1,"everTouched":null},{"id":"train-images","shape":"4","outlier_type":"NA","choice":5,"outlierPosition":5,"success":true,"majorityOfMostRegularShapes":"NA","rt":1388.8000000006286,"rot1":15,"rot2":5,"rot3":-15,"rot4":-5,"rot5":-25,"rot6":25,"dil1":0.875,"dil2":1.125,"dil3":1.025,"dil4":0.975,"dil5":0.925,"dil6":1.075,"rots":[15,5,-15,-5,-25,25],"dils":[0.875,1.125,1.025,0.975,0.925,1.075],"loop_number":1,"everTouched":null},{"id":"train-images","shape":"9","outlier_type":"NA","choice":1,"outlierPosition":1,"success":true,"majorityOfMostRegularShapes":"NA","rt":1116.0999999992782,"rot1":5,"rot2":15,"rot3":-5,"rot4":-15,"rot5":25,"rot6":-25,"dil1":0.875,"dil2":0.925,"dil3":1.025,"dil4":0.975,"dil5":1.125,"dil6":1.075,"rots":[5,15,-5,-15,25,-25],"dils":[0.875,0.925,1.025,0.975,1.125,1.075],"loop_number":1,"everTouched":null},{"id":"train-images","shape":"8","outlier_type":"NA","choice":1,"outlierPosition":1,"success":true,"majorityOfMostRegularShapes":"NA","rt":1436.6999999983818,"rot1":15,"rot2":-25,"rot3":-5,"rot4":5,"rot5":-15,"rot6":25,"dil1":1.075,"dil2":0.975,"dil3":1.125,"dil4":0.875,"dil5":1.025,"dil6":0.925,"rots":[15,-25,-5,5,-15,25],"dils":[1.075,0.975,1.125,0.875,1.025,0.925],"loop_number":1,"everTouched":null},{"id":"train-images","shape":"7","outlier_type":"NA","choice":0,"outlierPosition":0,"success":true,"majorityOfMostRegularShapes":"NA","rt":1173.4999999971478,"rot1":-25,"rot2":25,"rot3":-15,"rot4":-5,"rot5":15,"rot6":5,"dil1":0.975,"dil2":0.875,"dil3":1.075,"dil4":1.125,"dil5":1.025,"dil6":0.925,"rots":[-25,25,-15,-5,15,5],"dils":[0.975,0.875,1.075,1.125,1.025,0.925],"loop_number":1,"everTouched":null}],"trial_type":"oddball-grid-image","trial_index":1,"time_elapsed":91988,"internal_node_id":"0.0-1.0","ID":"hc9glnfu4t"},{"results":[{"id":"train","shape":null,"outlier_type":null,"choice":3,"outlierPosition":3,"success":true,"majorityOfMostRegularShapes":null,"rt":1452.8000000063912,"rot1":-25,"rot2":15,"rot3":-15,"rot4":-5,"rot5":25,"rot6":5,"dil1":0.925,"dil2":1.025,"dil3":0.875,"dil4":1.125,"dil5":1.075,"dil6":0.975,"rots":[-25,15,-15,-5,25,5],"dils":[0.925,1.025,0.875,1.125,1.075,0.975],"loop_number":1,"everTouched":null},{"id":"train","shape":null,"outlier_type":null,"choice":5,"outlierPosition":5,"success":true,"majorityOfMostRegularShapes":null,"rt":1201.6999999977998,"rot1":25,"rot2":-25,"rot3":-15,"rot4":-5,"rot5":5,"rot6":15,"dil1":1.025,"dil2":1.075,"dil3":1.125,"dil4":0.975,"dil5":0.925,"dil6":0.875,"rots":[25,-25,-15,-5,5,15],"dils":[1.025,1.075,1.125,0.975,0.925,0.875],"loop_number":1,"everTouched":null},{"id":"train","shape":null,"outlier_type":null,"choice":2,"outlierPosition":2,"success":true,"majorityOfMostRegularShapes":null,"rt":1117.2000000005937,"rot1":-25,"rot2":5,"rot3":-15,"rot4":15,"rot5":-5,"rot6":25,"dil1":0.925,"dil2":1.125,"dil3":1.075,"dil4":0.875,"dil5":0.975,"dil6":1.025,"rots":[-25,5,-15,15,-5,25],"dils":[0.925,1.125,1.075,0.875,0.975,1.025],"loop_number":1,"everTouched":null},{"id":"train","shape":null,"outlier_type":null,"choice":0,"outlierPosition":0,"success":true,"majorityOfMostRegularShapes":null,"rt":1018.8999999954831,"rot1":-15,"rot2":-25,"rot3":15,"rot4":-5,"rot5":5,"rot6":25,"dil1":1.075,"dil2":0.925,"dil3":0.975,"dil4":1.025,"dil5":1.125,"dil6":0.875,"rots":[-15,-25,15,-5,5,25],"dils":[1.075,0.925,0.975,1.025,1.125,0.875],"loop_number":1,"everTouched":null},{"id":"train","shape":null,"outlier_type":null,"choice":0,"outlierPosition":0,"success":true,"majorityOfMostRegularShapes":null,"rt":1229.299999999057,"rot1":5,"rot2":-5,"rot3":15,"rot4":25,"rot5":-25,"rot6":-15,"dil1":1.075,"dil2":1.125,"dil3":0.925,"dil4":1.025,"dil5":0.975,"dil6":0.875,"rots":[5,-5,15,25,-25,-15],"dils":[1.075,1.125,0.925,1.025,0.975,0.875],"loop_number":1,"everTouched":null},{"id":"train","shape":null,"outlier_type":null,"choice":5,"outlierPosition":5,"success":true,"majorityOfMostRegularShapes":null,"rt":871.1000000039348,"rot1":-25,"rot2":-15,"rot3":25,"rot4":5,"rot5":15,"rot6":-5,"dil1":0.875,"dil2":1.025,"dil3":1.075,"dil4":0.925,"dil5":0.975,"dil6":1.125,"rots":[-25,-15,25,5,15,-5],"dils":[0.875,1.025,1.075,0.925,0.975,1.125],"loop_number":1,"everTouched":null}],"desiredDistance":0.3,"trial_type":"oddball-grid-easy","trial_index":2,"time_elapsed":110643,"internal_node_id":"0.0-2.0","ID":"hc9glnfu4t"},{"results":[{"id":"test","shape":"trapezoid","outlier_type":1,"choice":5,"outlierPosition":5,"success":true,"majorityOfMostRegularShapes":true,"rt":2479.799999993702,"rot1":5,"rot2":-5,"rot3":-15,"rot4":-25,"rot5":15,"rot6":25,"dil1":0.975,"dil2":0.875,"dil3":1.075,"dil4":1.125,"dil5":1.025,"dil6":0.925,"rots":[5,-5,-15,-25,15,25],"dils":[0.975,0.875,1.075,1.125,1.025,0.925],"loop_number":"NA","everTouched":null},{"id":"test","shape":"rightKite","outlier_type":3,"choice":5,"outlierPosition":3,"success":false,"majorityOfMostRegularShapes":true,"rt":4656.399999999849,"rot1":-5,"rot2":-15,"rot3":5,"rot4":25,"rot5":15,"rot6":-25,"dil1":0.925,"dil2":1.075,"dil3":1.125,"dil4":1.025,"dil5":0.975,"dil6":0.875,"rots":[-5,-15,5,25,15,-25],"dils":[0.925,1.075,1.125,1.025,0.975,0.875],"loop_number":"NA","everTouched":null},{"id":"test","shape":"losange","outlier_type":2,"choice":2,"outlierPosition":2,"success":true,"majorityOfMostRegularShapes":true,"rt":3951.999999997497,"rot1":-25,"rot2":15,"rot3":-15,"rot4":25,"rot5":5,"rot6":-5,"dil1":0.975,"dil2":0.925,"dil3":1.075,"dil4":1.025,"dil5":1.125,"dil6":0.875,"rots":[-25,15,-15,25,5,-5],"dils":[0.975,0.925,1.075,1.025,1.125,0.875],"loop_number":"NA","everTouched":null},{"id":"test","shape":"square","outlier_type":1,"choice":3,"outlierPosition":3,"success":true,"majorityOfMostRegularShapes":true,"rt":4739.699999998265,"rot1":5,"rot2":-25,"rot3":-5,"rot4":15,"rot5":-15,"rot6":25,"dil1":0.975,"dil2":0.925,"dil3":1.125,"dil4":1.025,"dil5":0.875,"dil6":1.075,"rots":[5,-25,-5,15,-15,25],"dils":[0.975,0.925,1.125,1.025,0.875,1.075],"loop_number":"NA","everTouched":null},{"id":"test","shape":"rustedHinge","outlier_type":3,"choice":2,"outlierPosition":1,"success":false,"majorityOfMostRegularShapes":true,"rt":3883.1000000063796,"rot1":-5,"rot2":25,"rot3":5,"rot4":-15,"rot5":-25,"rot6":15,"dil1":1.025,"dil2":1.075,"dil3":0.875,"dil4":1.125,"dil5":0.975,"dil6":0.925,"rots":[-5,25,5,-15,-25,15],"dils":[1.025,1.075,0.875,1.125,0.975,0.925],"loop_number":"NA","everTouched":null},{"id":"test","shape":"hinge","outlier_type":1,"choice":4,"outlierPosition":4,"success":true,"majorityOfMostRegularShapes":true,"rt":1482.1000000010827,"rot1":-25,"rot2":5,"rot3":-5,"rot4":15,"rot5":25,"rot6":-15,"dil1":1.075,"dil2":1.025,"dil3":0.975,"dil4":0.925,"dil5":0.875,"dil6":1.125,"rots":[-25,5,-5,15,25,-15],"dils":[1.075,1.025,0.975,0.925,0.875,1.125],"loop_number":"NA","everTouched":null},{"id":"test","shape":"parallelogram","outlier_type":3,"choice":1,"outlierPosition":1,"success":true,"majorityOfMostRegularShapes":true,"rt":10096.699999994598,"rot1":5,"rot2":-25,"rot3":-5,"rot4":25,"rot5":-15,"rot6":15,"dil1":0.925,"dil2":1.125,"dil3":1.025,"dil4":0.975,"dil5":1.075,"dil6":0.875,"rots":[5,-25,-5,25,-15,15],"dils":[0.925,1.125,1.025,0.975,1.075,0.875],"loop_number":"NA","everTouched":null},{"id":"test","shape":"hinge","outlier_type":2,"choice":1,"outlierPosition":1,"success":true,"majorityOfMostRegularShapes":true,"rt":2438.6999999987893,"rot1":5,"rot2":-5,"rot3":25,"rot4":15,"rot5":-15,"rot6":-25,"dil1":0.925,"dil2":0.975,"dil3":0.875,"dil4":1.075,"dil5":1.125,"dil6":1.025,"rots":[5,-5,25,15,-15,-25],"dils":[0.925,0.975,0.875,1.075,1.125,1.025],"loop_number":"NA","everTouched":null},{"id":"test","shape":"square","outlier_type":0,"choice":0,"outlierPosition":0,"success":true,"majorityOfMostRegularShapes":true,"rt":2091.499999994994,"rot1":-15,"rot2":25,"rot3":5,"rot4":-5,"rot5":-25,"rot6":15,"dil1":1.125,"dil2":1.075,"dil3":0.975,"dil4":0.875,"dil5":0.925,"dil6":1.025,"rots":[-15,25,5,-5,-25,15],"dils":[1.125,1.075,0.975,0.875,0.925,1.025],"loop_number":"NA","everTouched":null},{"id":"test","shape":"losange","outlier_type":1,"choice":1,"outlierPosition":5,"success":false,"majorityOfMostRegularShapes":true,"rt":1859.4999999986612,"rot1":5,"rot2":25,"rot3":-25,"rot4":15,"rot5":-5,"rot6":-15,"dil1":0.875,"dil2":1.125,"dil3":1.025,"dil4":0.925,"dil5":0.975,"dil6":1.075,"rots":[5,25,-25,15,-5,-15],"dils":[0.875,1.125,1.025,0.925,0.975,1.075],"loop_number":"NA","everTouched":null},{"id":"test","shape":"rectangle","outlier_type":2,"choice":1,"outlierPosition":1,"success":true,"majorityOfMostRegularShapes":true,"rt":1669.90000000078,"rot1":-15,"rot2":-25,"rot3":25,"rot4":-5,"rot5":5,"rot6":15,"dil1":1.125,"dil2":0.875,"dil3":1.025,"dil4":0.925,"dil5":0.975,"dil6":1.075,"rots":[-15,-25,25,-5,5,15],"dils":[1.125,0.875,1.025,0.925,0.975,1.075],"loop_number":"NA","everTouched":null},{"id":"test","shape":"losange","outlier_type":0,"choice":2,"outlierPosition":2,"success":true,"majorityOfMostRegularShapes":true,"rt":3265.89999999851,"rot1":-15,"rot2":15,"rot3":25,"rot4":5,"rot5":-25,"rot6":-5,"dil1":0.975,"dil2":0.925,"dil3":1.075,"dil4":1.025,"dil5":1.125,"dil6":0.875,"rots":[-15,15,25,5,-25,-5],"dils":[0.975,0.925,1.075,1.025,1.125,0.875],"loop_number":"NA","everTouched":null},{"id":"test","shape":"square","outlier_type":3,"choice":4,"outlierPosition":4,"success":true,"majorityOfMostRegularShapes":true,"rt":1635.0000000020373,"rot1":5,"rot2":-5,"rot3":15,"rot4":-15,"rot5":25,"rot6":-25,"dil1":0.875,"dil2":0.925,"dil3":1.025,"dil4":0.975,"dil5":1.125,"dil6":1.075,"rots":[5,-5,15,-15,25,-25],"dils":[0.875,0.925,1.025,0.975,1.125,1.075],"loop_number":"NA","everTouched":null},{"id":"test","shape":"kite","outlier_type":0,"choice":2,"outlierPosition":5,"success":false,"majorityOfMostRegularShapes":true,"rt":5058.799999998882,"rot1":-15,"rot2":-25,"rot3":25,"rot4":15,"rot5":-5,"rot6":5,"dil1":0.875,"dil2":0.925,"dil3":1.125,"dil4":1.075,"dil5":1.025,"dil6":0.975,"rots":[-15,-25,25,15,-5,5],"dils":[0.875,0.925,1.125,1.075,1.025,0.975],"loop_number":"NA","everTouched":null},{"id":"test","shape":"rustedHinge","outlier_type":1,"choice":5,"outlierPosition":5,"success":true,"majorityOfMostRegularShapes":true,"rt":6127.700000004552,"rot1":5,"rot2":-25,"rot3":-5,"rot4":-15,"rot5":15,"rot6":25,"dil1":0.875,"dil2":1.025,"dil3":0.975,"dil4":0.925,"dil5":1.075,"dil6":1.125,"rots":[5,-25,-5,-15,15,25],"dils":[0.875,1.025,0.975,0.925,1.075,1.125],"loop_number":"NA","everTouched":null},{"id":"test","shape":"rectangle","outlier_type":3,"choice":3,"outlierPosition":3,"success":true,"majorityOfMostRegularShapes":true,"rt":2637.399999999616,"rot1":-25,"rot2":25,"rot3":15,"rot4":5,"rot5":-15,"rot6":-5,"dil1":1.025,"dil2":0.925,"dil3":1.075,"dil4":0.975,"dil5":1.125,"dil6":0.875,"rots":[-25,25,15,5,-15,-5],"dils":[1.025,0.925,1.075,0.975,1.125,0.875],"loop_number":"NA","everTouched":null},{"id":"test","shape":"random","outlier_type":0,"choice":2,"outlierPosition":0,"success":false,"majorityOfMostRegularShapes":true,"rt":4269.699999997101,"rot1":-25,"rot2":5,"rot3":25,"rot4":-15,"rot5":-5,"rot6":15,"dil1":0.975,"dil2":1.125,"dil3":0.925,"dil4":1.075,"dil5":0.875,"dil6":1.025,"rots":[-25,5,25,-15,-5,15],"dils":[0.975,1.125,0.925,1.075,0.875,1.025],"loop_number":"NA","everTouched":null},{"id":"test","shape":"rightKite","outlier_type":1,"choice":2,"outlierPosition":5,"success":false,"majorityOfMostRegularShapes":true,"rt":4251.500000005763,"rot1":-5,"rot2":25,"rot3":-25,"rot4":-15,"rot5":5,"rot6":15,"dil1":0.925,"dil2":1.125,"dil3":0.975,"dil4":1.075,"dil5":1.025,"dil6":0.875,"rots":[-5,25,-25,-15,5,15],"dils":[0.925,1.125,0.975,1.075,1.025,0.875],"loop_number":"NA","everTouched":null},{"id":"test","shape":"rectangle","outlier_type":0,"choice":4,"outlierPosition":4,"success":true,"majorityOfMostRegularShapes":true,"rt":2484.0000000040163,"rot1":-5,"rot2":15,"rot3":25,"rot4":-25,"rot5":-15,"rot6":5,"dil1":1.025,"dil2":0.925,"dil3":0.875,"dil4":1.075,"dil5":0.975,"dil6":1.125,"rots":[-5,15,25,-25,-15,5],"dils":[1.025,0.925,0.875,1.075,0.975,1.125],"loop_number":"NA","everTouched":null},{"id":"test","shape":"kite","outlier_type":3,"choice":2,"outlierPosition":3,"success":false,"majorityOfMostRegularShapes":true,"rt":7009.799999999814,"rot1":-15,"rot2":-5,"rot3":-25,"rot4":25,"rot5":15,"rot6":5,"dil1":0.875,"dil2":0.925,"dil3":1.075,"dil4":1.025,"dil5":0.975,"dil6":1.125,"rots":[-15,-5,-25,25,15,5],"dils":[0.875,0.925,1.075,1.025,0.975,1.125],"loop_number":"NA","everTouched":null},{"id":"test","shape":"isoTrapezoid","outlier_type":0,"choice":2,"outlierPosition":3,"success":false,"majorityOfMostRegularShapes":true,"rt":4868.799999996554,"rot1":15,"rot2":-25,"rot3":-15,"rot4":5,"rot5":-5,"rot6":25,"dil1":0.925,"dil2":0.975,"dil3":0.875,"dil4":1.025,"dil5":1.125,"dil6":1.075,"rots":[15,-25,-15,5,-5,25],"dils":[0.925,0.975,0.875,1.025,1.125,1.075],"loop_number":"NA","everTouched":null},{"id":"test","shape":"kite","outlier_type":2,"choice":2,"outlierPosition":2,"success":true,"majorityOfMostRegularShapes":true,"rt":2857.6999999932013,"rot1":25,"rot2":-5,"rot3":-15,"rot4":5,"rot5":15,"rot6":-25,"dil1":0.875,"dil2":0.975,"dil3":1.125,"dil4":1.025,"dil5":0.925,"dil6":1.075,"rots":[25,-5,-15,5,15,-25],"dils":[0.875,0.975,1.125,1.025,0.925,1.075],"loop_number":"NA","everTouched":null},{"id":"test","shape":"rectangle","outlier_type":1,"choice":5,"outlierPosition":5,"success":true,"majorityOfMostRegularShapes":true,"rt":2738.600000004226,"rot1":25,"rot2":-25,"rot3":-15,"rot4":15,"rot5":5,"rot6":-5,"dil1":0.975,"dil2":0.875,"dil3":0.925,"dil4":1.075,"dil5":1.125,"dil6":1.025,"rots":[25,-25,-15,15,5,-5],"dils":[0.975,0.875,0.925,1.075,1.125,1.025],"loop_number":"NA","everTouched":null},{"id":"test","shape":"parallelogram","outlier_type":0,"choice":1,"outlierPosition":1,"success":true,"majorityOfMostRegularShapes":true,"rt":6463.7000000002445,"rot1":-25,"rot2":5,"rot3":15,"rot4":-15,"rot5":-5,"rot6":25,"dil1":1.075,"dil2":1.125,"dil3":0.875,"dil4":0.925,"dil5":1.025,"dil6":0.975,"rots":[-25,5,15,-15,-5,25],"dils":[1.075,1.125,0.875,0.925,1.025,0.975],"loop_number":"NA","everTouched":null},{"id":"test","shape":"losange","outlier_type":3,"choice":1,"outlierPosition":1,"success":true,"majorityOfMostRegularShapes":true,"rt":2578.6000000007334,"rot1":5,"rot2":-25,"rot3":-5,"rot4":15,"rot5":25,"rot6":-15,"dil1":1.025,"dil2":0.975,"dil3":0.875,"dil4":0.925,"dil5":1.125,"dil6":1.075,"rots":[5,-25,-5,15,25,-15],"dils":[1.025,0.975,0.875,0.925,1.125,1.075],"loop_number":"NA","everTouched":null},{"id":"test","shape":"parallelogram","outlier_type":2,"choice":2,"outlierPosition":2,"success":true,"majorityOfMostRegularShapes":true,"rt":2578.6000000007334,"rot1":15,"rot2":5,"rot3":-25,"rot4":25,"rot5":-5,"rot6":-15,"dil1":0.875,"dil2":1.075,"dil3":1.025,"dil4":0.925,"dil5":0.975,"dil6":1.125,"rots":[15,5,-25,25,-5,-15],"dils":[0.875,1.075,1.025,0.925,0.975,1.125],"loop_number":"NA","everTouched":null},{"id":"test","shape":"trapezoid","outlier_type":3,"choice":4,"outlierPosition":4,"success":true,"majorityOfMostRegularShapes":true,"rt":2502.8999999994994,"rot1":25,"rot2":5,"rot3":-25,"rot4":-5,"rot5":-15,"rot6":15,"dil1":0.975,"dil2":0.925,"dil3":1.125,"dil4":0.875,"dil5":1.025,"dil6":1.075,"rots":[25,5,-25,-5,-15,15],"dils":[0.975,0.925,1.125,0.875,1.025,1.075],"loop_number":"NA","everTouched":null},{"id":"test","shape":"square","outlier_type":2,"choice":4,"outlierPosition":4,"success":true,"majorityOfMostRegularShapes":true,"rt":2896.8000000022585,"rot1":5,"rot2":-15,"rot3":15,"rot4":-25,"rot5":25,"rot6":-5,"dil1":0.925,"dil2":1.025,"dil3":0.975,"dil4":0.875,"dil5":1.075,"dil6":1.125,"rots":[5,-15,15,-25,25,-5],"dils":[0.925,1.025,0.975,0.875,1.075,1.125],"loop_number":"NA","everTouched":null},{"id":"test","shape":"trapezoid","outlier_type":0,"choice":1,"outlierPosition":2,"success":false,"majorityOfMostRegularShapes":true,"rt":4365.9999999945285,"rot1":15,"rot2":-15,"rot3":5,"rot4":-5,"rot5":-25,"rot6":25,"dil1":1.025,"dil2":0.925,"dil3":0.875,"dil4":1.075,"dil5":1.125,"dil6":0.975,"rots":[15,-15,5,-5,-25,25],"dils":[1.025,0.925,0.875,1.075,1.125,0.975],"loop_number":"NA","everTouched":null},{"id":"test","shape":"rightKite","outlier_type":2,"choice":4,"outlierPosition":0,"success":false,"majorityOfMostRegularShapes":true,"rt":2644.5000000021537,"rot1":-15,"rot2":15,"rot3":5,"rot4":25,"rot5":-5,"rot6":-25,"dil1":1.125,"dil2":1.025,"dil3":0.925,"dil4":0.975,"dil5":0.875,"dil6":1.075,"rots":[-15,15,5,25,-5,-25],"dils":[1.125,1.025,0.925,0.975,0.875,1.075],"loop_number":"NA","everTouched":null},{"id":"test","shape":"rightKite","outlier_type":0,"choice":3,"outlierPosition":2,"success":false,"majorityOfMostRegularShapes":true,"rt":6823.499999998603,"rot1":25,"rot2":5,"rot3":-15,"rot4":-25,"rot5":15,"rot6":-5,"dil1":0.925,"dil2":0.875,"dil3":1.125,"dil4":1.025,"dil5":0.975,"dil6":1.075,"rots":[25,5,-15,-25,15,-5],"dils":[0.925,0.875,1.125,1.025,0.975,1.075],"loop_number":"NA","everTouched":null},{"id":"test","shape":"kite","outlier_type":1,"choice":0,"outlierPosition":0,"success":true,"majorityOfMostRegularShapes":true,"rt":5870.000000002619,"rot1":-25,"rot2":5,"rot3":-5,"rot4":15,"rot5":-15,"rot6":25,"dil1":1.075,"dil2":1.125,"dil3":1.025,"dil4":0.975,"dil5":0.925,"dil6":0.875,"rots":[-25,5,-5,15,-15,25],"dils":[1.075,1.125,1.025,0.975,0.925,0.875],"loop_number":"NA","everTouched":null},{"id":"test","shape":"random","outlier_type":2,"choice":4,"outlierPosition":2,"success":false,"majorityOfMostRegularShapes":true,"rt":11601.399999999558,"rot1":5,"rot2":-15,"rot3":-5,"rot4":-25,"rot5":15,"rot6":25,"dil1":1.075,"dil2":1.125,"dil3":0.975,"dil4":1.025,"dil5":0.875,"dil6":0.925,"rots":[5,-15,-5,-25,15,25],"dils":[1.075,1.125,0.975,1.025,0.875,0.925],"loop_number":"NA","everTouched":null},{"id":"test","shape":"isoTrapezoid","outlier_type":3,"choice":1,"outlierPosition":1,"success":true,"majorityOfMostRegularShapes":true,"rt":8273.400000005495,"rot1":-15,"rot2":5,"rot3":15,"rot4":-5,"rot5":25,"rot6":-25,"dil1":0.925,"dil2":1.025,"dil3":0.875,"dil4":1.125,"dil5":0.975,"dil6":1.075,"rots":[-15,5,15,-5,25,-25],"dils":[0.925,1.025,0.875,1.125,0.975,1.075],"loop_number":"NA","everTouched":null},{"id":"test","shape":"random","outlier_type":1,"choice":2,"outlierPosition":4,"success":false,"majorityOfMostRegularShapes":true,"rt":5003.700000001118,"rot1":-15,"rot2":-25,"rot3":5,"rot4":-5,"rot5":25,"rot6":15,"dil1":0.975,"dil2":1.125,"dil3":1.075,"dil4":0.875,"dil5":0.925,"dil6":1.025,"rots":[-15,-25,5,-5,25,15],"dils":[0.975,1.125,1.075,0.875,0.925,1.025],"loop_number":"NA","everTouched":null},{"id":"test","shape":"hinge","outlier_type":0,"choice":1,"outlierPosition":1,"success":true,"majorityOfMostRegularShapes":true,"rt":7386.500000000524,"rot1":25,"rot2":-25,"rot3":-15,"rot4":5,"rot5":15,"rot6":-5,"dil1":1.125,"dil2":1.025,"dil3":0.925,"dil4":0.875,"dil5":0.975,"dil6":1.075,"rots":[25,-25,-15,5,15,-5],"dils":[1.125,1.025,0.925,0.875,0.975,1.075],"loop_number":"NA","everTouched":null},{"id":"test","shape":"trapezoid","outlier_type":2,"choice":5,"outlierPosition":5,"success":true,"majorityOfMostRegularShapes":true,"rt":3881.600000000617,"rot1":-15,"rot2":15,"rot3":25,"rot4":-25,"rot5":5,"rot6":-5,"dil1":0.925,"dil2":1.075,"dil3":1.125,"dil4":1.025,"dil5":0.975,"dil6":0.875,"rots":[-15,15,25,-25,5,-5],"dils":[0.925,1.075,1.125,1.025,0.975,0.875],"loop_number":"NA","everTouched":null},{"id":"test","shape":"random","outlier_type":3,"choice":5,"outlierPosition":5,"success":true,"majorityOfMostRegularShapes":true,"rt":5178.8999999989755,"rot1":5,"rot2":-25,"rot3":25,"rot4":-15,"rot5":-5,"rot6":15,"dil1":1.125,"dil2":0.975,"dil3":1.075,"dil4":1.025,"dil5":0.925,"dil6":0.875,"rots":[5,-25,25,-15,-5,15],"dils":[1.125,0.975,1.075,1.025,0.925,0.875],"loop_number":"NA","everTouched":null},{"id":"test","shape":"parallelogram","outlier_type":1,"choice":0,"outlierPosition":0,"success":true,"majorityOfMostRegularShapes":true,"rt":3258.6999999984982,"rot1":-15,"rot2":-5,"rot3":5,"rot4":-25,"rot5":15,"rot6":25,"dil1":0.875,"dil2":1.125,"dil3":1.025,"dil4":1.075,"dil5":0.975,"dil6":0.925,"rots":[-15,-5,5,-25,15,25],"dils":[0.875,1.125,1.025,1.075,0.975,0.925],"loop_number":"NA","everTouched":null},{"id":"test","shape":"rustedHinge","outlier_type":0,"choice":0,"outlierPosition":0,"success":true,"majorityOfMostRegularShapes":true,"rt":5116.600000001199,"rot1":25,"rot2":-15,"rot3":15,"rot4":-25,"rot5":-5,"rot6":5,"dil1":0.925,"dil2":1.075,"dil3":0.875,"dil4":1.025,"dil5":0.975,"dil6":1.125,"rots":[25,-15,15,-25,-5,5],"dils":[0.925,1.075,0.875,1.025,0.975,1.125],"loop_number":"NA","everTouched":null},{"id":"test","shape":"hinge","outlier_type":3,"choice":1,"outlierPosition":2,"success":false,"majorityOfMostRegularShapes":true,"rt":13070.499999994354,"rot1":25,"rot2":-25,"rot3":-5,"rot4":5,"rot5":15,"rot6":-15,"dil1":1.025,"dil2":0.875,"dil3":1.125,"dil4":0.925,"dil5":0.975,"dil6":1.075,"rots":[25,-25,-5,5,15,-15],"dils":[1.025,0.875,1.125,0.925,0.975,1.075],"loop_number":"NA","everTouched":null},{"id":"test","shape":"rustedHinge","outlier_type":2,"choice":0,"outlierPosition":3,"success":false,"majorityOfMostRegularShapes":true,"rt":11926.100000004226,"rot1":5,"rot2":-15,"rot3":15,"rot4":25,"rot5":-5,"rot6":-25,"dil1":1.075,"dil2":1.025,"dil3":1.125,"dil4":0.975,"dil5":0.925,"dil6":0.875,"rots":[5,-15,15,25,-5,-25],"dils":[1.075,1.025,1.125,0.975,0.925,0.875],"loop_number":"NA","everTouched":null},{"id":"test","shape":"isoTrapezoid","outlier_type":2,"choice":2,"outlierPosition":2,"success":true,"majorityOfMostRegularShapes":true,"rt":3916.7000000015832,"rot1":-5,"rot2":25,"rot3":-25,"rot4":5,"rot5":-15,"rot6":15,"dil1":1.075,"dil2":0.975,"dil3":1.025,"dil4":0.875,"dil5":0.925,"dil6":1.125,"rots":[-5,25,-25,5,-15,15],"dils":[1.075,0.975,1.025,0.875,0.925,1.125],"loop_number":"NA","everTouched":null},{"id":"test","shape":"isoTrapezoid","outlier_type":1,"choice":1,"outlierPosition":1,"success":true,"majorityOfMostRegularShapes":true,"rt":4897.999999993772,"rot1":-15,"rot2":-25,"rot3":5,"rot4":25,"rot5":-5,"rot6":15,"dil1":0.975,"dil2":0.875,"dil3":1.075,"dil4":1.025,"dil5":1.125,"dil6":0.925,"rots":[-15,-25,5,25,-5,15],"dils":[0.975,0.875,1.075,1.025,1.125,0.925],"loop_number":"NA","everTouched":null}],"desiredDistance":0.3,"trial_type":"oddball-grid","trial_index":3,"time_elapsed":416762,"internal_node_id":"0.0-3.0","ID":"hc9glnfu4t"},{"success":true,"trial_type":"fullscreen","trial_index":4,"time_elapsed":423041,"internal_node_id":"0.0-4.0","ID":"hc9glnfu4t"}]