[{"success":true,"trial_type":"fullscreen","trial_index":0,"time_elapsed":55812,"internal_node_id":"0.0-0.0","ID":"33jpbkk6ul"},{"results":[{"id":"train-images","shape":"4","outlier_type":"NA","choice":1,"outlierPosition":1,"success":true,"majorityOfMostRegularShapes":"NA","rt":3049.9999999956344,"rot1":-5,"rot2":-25,"rot3":15,"rot4":-15,"rot5":5,"rot6":25,"dil1":1.025,"dil2":0.975,"dil3":1.125,"dil4":0.925,"dil5":0.875,"dil6":1.075,"rots":[-5,-25,15,-15,5,25],"dils":[1.025,0.975,1.125,0.925,0.875,1.075],"loop_number":1,"everTouched":null},{"id":"train-images","shape":"1","outlier_type":"NA","choice":0,"outlierPosition":0,"success":true,"majorityOfMostRegularShapes":"NA","rt":1335.2000000013504,"rot1":15,"rot2":-25,"rot3":25,"rot4":-5,"rot5":5,"rot6":-15,"dil1":1.025,"dil2":1.075,"dil3":1.125,"dil4":0.975,"dil5":0.925,"dil6":0.875,"rots":[15,-25,25,-5,5,-15],"dils":[1.025,1.075,1.125,0.975,0.925,0.875],"loop_number":1,"everTouched":null},{"id":"train-images","shape":"7","outlier_type":"NA","choice":5,"outlierPosition":5,"success":true,"majorityOfMostRegularShapes":"NA","rt":1444.8999999949592,"rot1":5,"rot2":25,"rot3":15,"rot4":-15,"rot5":-5,"rot6":-25,"dil1":0.975,"dil2":0.875,"dil3":1.025,"dil4":1.125,"dil5":1.075,"dil6":0.925,"rots":[5,25,15,-15,-5,-25],"dils":[0.975,0.875,1.025,1.125,1.075,0.925],"loop_number":1,"everTouched":null},{"id":"train-images","shape":"3","outlier_type":"NA","choice":1,"outlierPosition":1,"success":true,"majorityOfMostRegularShapes":"NA","rt":1481.7000000039116,"rot1":5,"rot2":-15,"rot3":25,"rot4":15,"rot5":-25,"rot6":-5,"dil1":0.925,"dil2":0.875,"dil3":0.975,"dil4":1.125,"dil5":1.075,"dil6":1.025,"rots":[5,-15,25,15,-25,-5],"dils":[0.925,0.875,0.975,1.125,1.075,1.025],"loop_number":1,"everTouched":null},{"id":"train-images","shape":"6","outlier_type":"NA","choice":2,"outlierPosition":2,"success":true,"majorityOfMostRegularShapes":"NA","rt":1391.4999999979045,"rot1":15,"rot2":-5,"rot3":-25,"rot4":25,"rot5":-15,"rot6":5,"dil1":1.125,"dil2":0.925,"dil3":0.975,"dil4":1.075,"dil5":0.875,"dil6":1.025,"rots":[15,-5,-25,25,-15,5],"dils":[1.125,0.925,0.975,1.075,0.875,1.025],"loop_number":1,"everTouched":null},{"id":"train-images","shape":"5","outlier_type":"NA","choice":4,"outlierPosition":4,"success":true,"majorityOfMostRegularShapes":"NA","rt":1520.299999996496,"rot1":5,"rot2":25,"rot3":15,"rot4":-25,"rot5":-15,"rot6":-5,"dil1":1.125,"dil2":1.025,"dil3":0.925,"dil4":1.075,"dil5":0.975,"dil6":0.875,"rots":[5,25,15,-25,-15,-5],"dils":[1.125,1.025,0.925,1.075,0.975,0.875],"loop_number":1,"everTouched":null},{"id":"train-images","shape":"8","outlier_type":"NA","choice":3,"outlierPosition":3,"success":true,"majorityOfMostRegularShapes":"NA","rt":1250.5000000019209,"rot1":5,"rot2":-25,"rot3":25,"rot4":-15,"rot5":-5,"rot6":15,"dil1":1.125,"dil2":1.075,"dil3":1.025,"dil4":0.875,"dil5":0.975,"dil6":0.925,"rots":[5,-25,25,-15,-5,15],"dils":[1.125,1.075,1.025,0.875,0.975,0.925],"loop_number":1,"everTouched":null},{"id":"train-images","shape":"10","outlier_type":"NA","choice":4,"outlierPosition":4,"success":true,"majorityOfMostRegularShapes":"NA","rt":1207.1999999971013,"rot1":15,"rot2":-25,"rot3":-5,"rot4":25,"rot5":-15,"rot6":5,"dil1":0.875,"dil2":1.125,"dil3":0.925,"dil4":1.075,"dil5":0.975,"dil6":1.025,"rots":[15,-25,-5,25,-15,5],"dils":[0.875,1.125,0.925,1.075,0.975,1.025],"loop_number":1,"everTouched":null},{"id":"train-images","shape":"2","outlier_type":"NA","choice":0,"outlierPosition":0,"success":true,"majorityOfMostRegularShapes":"NA","rt":1208.2999999984168,"rot1":25,"rot2":-5,"rot3":-15,"rot4":5,"rot5":-25,"rot6":15,"dil1":0.875,"dil2":1.075,"dil3":1.025,"dil4":1.125,"dil5":0.975,"dil6":0.925,"rots":[25,-5,-15,5,-25,15],"dils":[0.875,1.075,1.025,1.125,0.975,0.925],"loop_number":1,"everTouched":null},{"id":"train-images","shape":"9","outlier_type":"NA","choice":3,"outlierPosition":3,"success":true,"majorityOfMostRegularShapes":"NA","rt":1241.3999999989755,"rot1":25,"rot2":-5,"rot3":15,"rot4":-15,"rot5":-25,"rot6":5,"dil1":1.075,"dil2":1.125,"dil3":1.025,"dil4":0.875,"dil5":0.975,"dil6":0.925,"rots":[25,-5,15,-15,-25,5],"dils":[1.075,1.125,1.025,0.875,0.975,0.925],"loop_number":1,"everTouched":null}],"trial_type":"oddball-grid-image","trial_index":1,"time_elapsed":103043,"internal_node_id":"0.0-1.0","ID":"33jpbkk6ul"},{"results":[{"id":"train","shape":null,"outlier_type":null,"choice":3,"outlierPosition":3,"success":true,"majorityOfMostRegularShapes":null,"rt":2051.2000000016997,"rot1":-15,"rot2":5,"rot3":-25,"rot4":15,"rot5":-5,"rot6":25,"dil1":1.025,"dil2":1.125,"dil3":1.075,"dil4":0.925,"dil5":0.875,"dil6":0.975,"rots":[-15,5,-25,15,-5,25],"dils":[1.025,1.125,1.075,0.925,0.875,0.975],"loop_number":1,"everTouched":null},{"id":"train","shape":null,"outlier_type":null,"choice":3,"outlierPosition":3,"success":true,"majorityOfMostRegularShapes":null,"rt":1481.8999999988591,"rot1":15,"rot2":25,"rot3":-5,"rot4":-15,"rot5":-25,"rot6":5,"dil1":1.125,"dil2":1.075,"dil3":0.875,"dil4":0.975,"dil5":0.925,"dil6":1.025,"rots":[15,25,-5,-15,-25,5],"dils":[1.125,1.075,0.875,0.975,0.925,1.025],"loop_number":1,"everTouched":null},{"id":"train","shape":null,"outlier_type":null,"choice":1,"outlierPosition":1,"success":true,"majorityOfMostRegularShapes":null,"rt":1529.00000000227,"rot1":-25,"rot2":25,"rot3":-15,"rot4":5,"rot5":-5,"rot6":15,"dil1":1.125,"dil2":0.975,"dil3":1.075,"dil4":0.875,"dil5":1.025,"dil6":0.925,"rots":[-25,25,-15,5,-5,15],"dils":[1.125,0.975,1.075,0.875,1.025,0.925],"loop_number":1,"everTouched":null},{"id":"train","shape":null,"outlier_type":null,"choice":3,"outlierPosition":3,"success":true,"majorityOfMostRegularShapes":null,"rt":1430.5999999996857,"rot1":25,"rot2":-25,"rot3":15,"rot4":-5,"rot5":5,"rot6":-15,"dil1":0.975,"dil2":1.125,"dil3":1.075,"dil4":0.925,"dil5":1.025,"dil6":0.875,"rots":[25,-25,15,-5,5,-15],"dils":[0.975,1.125,1.075,0.925,1.025,0.875],"loop_number":1,"everTouched":null},{"id":"train","shape":null,"outlier_type":null,"choice":4,"outlierPosition":4,"success":true,"majorityOfMostRegularShapes":null,"rt":1510.0000000020373,"rot1":-25,"rot2":-5,"rot3":25,"rot4":15,"rot5":5,"rot6":-15,"dil1":0.975,"dil2":1.125,"dil3":0.925,"dil4":1.025,"dil5":1.075,"dil6":0.875,"rots":[-25,-5,25,15,5,-15],"dils":[0.975,1.125,0.925,1.025,1.075,0.875],"loop_number":1,"everTouched":null},{"id":"train","shape":null,"outlier_type":null,"choice":2,"outlierPosition":2,"success":true,"majorityOfMostRegularShapes":null,"rt":1568.2999999989988,"rot1":-25,"rot2":15,"rot3":5,"rot4":25,"rot5":-15,"rot6":-5,"dil1":1.125,"dil2":0.925,"dil3":1.025,"dil4":0.875,"dil5":1.075,"dil6":0.975,"rots":[-25,15,5,25,-15,-5],"dils":[1.125,0.925,1.025,0.875,1.075,0.975],"loop_number":1,"everTouched":null}],"desiredDistance":0.3,"trial_type":"oddball-grid-easy","trial_index":2,"time_elapsed":124983,"internal_node_id":"0.0-2.0","ID":"33jpbkk6ul"},{"results":[{"id":"test","shape":"kite","outlier_type":1,"choice":5,"outlierPosition":5,"success":true,"majorityOfMostRegularShapes":true,"rt":5929.60000000312,"rot1":15,"rot2":-5,"rot3":5,"rot4":25,"rot5":-15,"rot6":-25,"dil1":0.875,"dil2":0.975,"dil3":1.025,"dil4":1.125,"dil5":0.925,"dil6":1.075,"rots":[15,-5,5,25,-15,-25],"dils":[0.875,0.975,1.025,1.125,0.925,1.075],"loop_number":"NA","everTouched":null},{"id":"test","shape":"random","outlier_type":0,"choice":5,"outlierPosition":3,"success":false,"majorityOfMostRegularShapes":true,"rt":6884.59999999759,"rot1":15,"rot2":-5,"rot3":-15,"rot4":5,"rot5":25,"rot6":-25,"dil1":1.025,"dil2":1.125,"dil3":1.075,"dil4":0.875,"dil5":0.975,"dil6":0.925,"rots":[15,-5,-15,5,25,-25],"dils":[1.025,1.125,1.075,0.875,0.975,0.925],"loop_number":"NA","everTouched":null},{"id":"test","shape":"rightKite","outlier_type":1,"choice":0,"outlierPosition":0,"success":true,"majorityOfMostRegularShapes":true,"rt":5756.3999999983935,"rot1":-15,"rot2":-5,"rot3":25,"rot4":15,"rot5":5,"rot6":-25,"dil1":0.875,"dil2":1.025,"dil3":1.075,"dil4":0.925,"dil5":1.125,"dil6":0.975,"rots":[-15,-5,25,15,5,-25],"dils":[0.875,1.025,1.075,0.925,1.125,0.975],"loop_number":"NA","everTouched":null},{"id":"test","shape":"trapezoid","outlier_type":2,"choice":1,"outlierPosition":1,"success":true,"majorityOfMostRegularShapes":true,"rt":4982.29999999603,"rot1":-15,"rot2":5,"rot3":-5,"rot4":25,"rot5":-25,"rot6":15,"dil1":1.025,"dil2":0.875,"dil3":0.975,"dil4":0.925,"dil5":1.125,"dil6":1.075,"rots":[-15,5,-5,25,-25,15],"dils":[1.025,0.875,0.975,0.925,1.125,1.075],"loop_number":"NA","everTouched":null},{"id":"test","shape":"random","outlier_type":1,"choice":3,"outlierPosition":3,"success":true,"majorityOfMostRegularShapes":true,"rt":5127.700000004552,"rot1":-25,"rot2":5,"rot3":15,"rot4":-5,"rot5":25,"rot6":-15,"dil1":1.075,"dil2":0.925,"dil3":0.975,"dil4":1.025,"dil5":1.125,"dil6":0.875,"rots":[-25,5,15,-5,25,-15],"dils":[1.075,0.925,0.975,1.025,1.125,0.875],"loop_number":"NA","everTouched":null},{"id":"test","shape":"square","outlier_type":3,"choice":0,"outlierPosition":0,"success":true,"majorityOfMostRegularShapes":true,"rt":2432.0000000006985,"rot1":-15,"rot2":25,"rot3":5,"rot4":-5,"rot5":-25,"rot6":15,"dil1":0.975,"dil2":1.125,"dil3":1.025,"dil4":0.925,"dil5":1.075,"dil6":0.875,"rots":[-15,25,5,-5,-25,15],"dils":[0.975,1.125,1.025,0.925,1.075,0.875],"loop_number":"NA","everTouched":null},{"id":"test","shape":"rectangle","outlier_type":0,"choice":1,"outlierPosition":1,"success":true,"majorityOfMostRegularShapes":true,"rt":1916.6000000041095,"rot1":-5,"rot2":25,"rot3":-15,"rot4":-25,"rot5":15,"rot6":5,"dil1":0.975,"dil2":1.025,"dil3":0.925,"dil4":1.075,"dil5":0.875,"dil6":1.125,"rots":[-5,25,-15,-25,15,5],"dils":[0.975,1.025,0.925,1.075,0.875,1.125],"loop_number":"NA","everTouched":null},{"id":"test","shape":"losange","outlier_type":1,"choice":5,"outlierPosition":5,"success":true,"majorityOfMostRegularShapes":true,"rt":2603.6000000021886,"rot1":-5,"rot2":15,"rot3":-15,"rot4":-25,"rot5":5,"rot6":25,"dil1":1.075,"dil2":1.025,"dil3":0.975,"dil4":0.875,"dil5":0.925,"dil6":1.125,"rots":[-5,15,-15,-25,5,25],"dils":[1.075,1.025,0.975,0.875,0.925,1.125],"loop_number":"NA","everTouched":null},{"id":"test","shape":"square","outlier_type":2,"choice":5,"outlierPosition":5,"success":true,"majorityOfMostRegularShapes":true,"rt":1628.100000001723,"rot1":-5,"rot2":25,"rot3":-15,"rot4":-25,"rot5":15,"rot6":5,"dil1":1.025,"dil2":1.075,"dil3":0.925,"dil4":1.125,"dil5":0.875,"dil6":0.975,"rots":[-5,25,-15,-25,15,5],"dils":[1.025,1.075,0.925,1.125,0.875,0.975],"loop_number":"NA","everTouched":null},{"id":"test","shape":"kite","outlier_type":3,"choice":3,"outlierPosition":3,"success":true,"majorityOfMostRegularShapes":true,"rt":3007.7000000019325,"rot1":15,"rot2":25,"rot3":-25,"rot4":-5,"rot5":5,"rot6":-15,"dil1":1.125,"dil2":0.975,"dil3":1.075,"dil4":0.925,"dil5":0.875,"dil6":1.025,"rots":[15,25,-25,-5,5,-15],"dils":[1.125,0.975,1.075,0.925,0.875,1.025],"loop_number":"NA","everTouched":null},{"id":"test","shape":"random","outlier_type":3,"choice":5,"outlierPosition":5,"success":true,"majorityOfMostRegularShapes":true,"rt":9452.499999999418,"rot1":25,"rot2":-5,"rot3":-25,"rot4":-15,"rot5":15,"rot6":5,"dil1":0.925,"dil2":0.875,"dil3":0.975,"dil4":1.125,"dil5":1.075,"dil6":1.025,"rots":[25,-5,-25,-15,15,5],"dils":[0.925,0.875,0.975,1.125,1.075,1.025],"loop_number":"NA","everTouched":null},{"id":"test","shape":"losange","outlier_type":0,"choice":4,"outlierPosition":4,"success":true,"majorityOfMostRegularShapes":true,"rt":6965.499999998428,"rot1":-25,"rot2":-5,"rot3":5,"rot4":25,"rot5":-15,"rot6":15,"dil1":0.925,"dil2":0.975,"dil3":1.125,"dil4":1.025,"dil5":1.075,"dil6":0.875,"rots":[-25,-5,5,25,-15,15],"dils":[0.925,0.975,1.125,1.025,1.075,0.875],"loop_number":"NA","everTouched":null},{"id":"test","shape":"hinge","outlier_type":3,"choice":0,"outlierPosition":0,"success":true,"majorityOfMostRegularShapes":true,"rt":6289.199999999255,"rot1":25,"rot2":-25,"rot3":15,"rot4":5,"rot5":-15,"rot6":-5,"dil1":0.875,"dil2":0.925,"dil3":1.075,"dil4":1.025,"dil5":1.125,"dil6":0.975,"rots":[25,-25,15,5,-15,-5],"dils":[0.875,0.925,1.075,1.025,1.125,0.975],"loop_number":"NA","everTouched":null},{"id":"test","shape":"rightKite","outlier_type":0,"choice":5,"outlierPosition":5,"success":true,"majorityOfMostRegularShapes":true,"rt":9082.499999996799,"rot1":25,"rot2":5,"rot3":-25,"rot4":-15,"rot5":15,"rot6":-5,"dil1":0.925,"dil2":1.025,"dil3":1.075,"dil4":1.125,"dil5":0.975,"dil6":0.875,"rots":[25,5,-25,-15,15,-5],"dils":[0.925,1.025,1.075,1.125,0.975,0.875],"loop_number":"NA","everTouched":null},{"id":"test","shape":"rectangle","outlier_type":2,"choice":5,"outlierPosition":5,"success":true,"majorityOfMostRegularShapes":true,"rt":2301.09999999695,"rot1":5,"rot2":-25,"rot3":-5,"rot4":15,"rot5":-15,"rot6":25,"dil1":0.875,"dil2":1.025,"dil3":0.925,"dil4":1.075,"dil5":0.975,"dil6":1.125,"rots":[5,-25,-5,15,-15,25],"dils":[0.875,1.025,0.925,1.075,0.975,1.125],"loop_number":"NA","everTouched":null},{"id":"test","shape":"isoTrapezoid","outlier_type":3,"choice":0,"outlierPosition":0,"success":true,"majorityOfMostRegularShapes":true,"rt":3735.5999999999767,"rot1":-5,"rot2":-25,"rot3":5,"rot4":15,"rot5":25,"rot6":-15,"dil1":0.925,"dil2":1.125,"dil3":0.875,"dil4":1.025,"dil5":0.975,"dil6":1.075,"rots":[-5,-25,5,15,25,-15],"dils":[0.925,1.125,0.875,1.025,0.975,1.075],"loop_number":"NA","everTouched":null},{"id":"test","shape":"kite","outlier_type":0,"choice":5,"outlierPosition":5,"success":true,"majorityOfMostRegularShapes":true,"rt":5182.89999999979,"rot1":25,"rot2":-15,"rot3":-5,"rot4":-25,"rot5":5,"rot6":15,"dil1":0.875,"dil2":0.925,"dil3":0.975,"dil4":1.025,"dil5":1.125,"dil6":1.075,"rots":[25,-15,-5,-25,5,15],"dils":[0.875,0.925,0.975,1.025,1.125,1.075],"loop_number":"NA","everTouched":null},{"id":"test","shape":"trapezoid","outlier_type":1,"choice":4,"outlierPosition":4,"success":true,"majorityOfMostRegularShapes":true,"rt":5710.500000001048,"rot1":-25,"rot2":-15,"rot3":-5,"rot4":5,"rot5":25,"rot6":15,"dil1":1.025,"dil2":0.975,"dil3":0.875,"dil4":0.925,"dil5":1.125,"dil6":1.075,"rots":[-25,-15,-5,5,25,15],"dils":[1.025,0.975,0.875,0.925,1.125,1.075],"loop_number":"NA","everTouched":null},{"id":"test","shape":"rightKite","outlier_type":2,"choice":3,"outlierPosition":4,"success":false,"majorityOfMostRegularShapes":true,"rt":6728.300000002491,"rot1":25,"rot2":-15,"rot3":15,"rot4":-25,"rot5":5,"rot6":-5,"dil1":0.875,"dil2":1.125,"dil3":1.025,"dil4":0.975,"dil5":0.925,"dil6":1.075,"rots":[25,-15,15,-25,5,-5],"dils":[0.875,1.125,1.025,0.975,0.925,1.075],"loop_number":"NA","everTouched":null},{"id":"test","shape":"losange","outlier_type":3,"choice":2,"outlierPosition":2,"success":true,"majorityOfMostRegularShapes":true,"rt":4688.399999999092,"rot1":5,"rot2":-15,"rot3":-25,"rot4":25,"rot5":15,"rot6":-5,"dil1":0.875,"dil2":0.925,"dil3":1.125,"dil4":1.025,"dil5":0.975,"dil6":1.075,"rots":[5,-15,-25,25,15,-5],"dils":[0.875,0.925,1.125,1.025,0.975,1.075],"loop_number":"NA","everTouched":null},{"id":"test","shape":"hinge","outlier_type":1,"choice":5,"outlierPosition":5,"success":true,"majorityOfMostRegularShapes":true,"rt":11256.999999997788,"rot1":15,"rot2":-25,"rot3":-15,"rot4":25,"rot5":5,"rot6":-5,"dil1":1.125,"dil2":1.075,"dil3":1.025,"dil4":0.925,"dil5":0.875,"dil6":0.975,"rots":[15,-25,-15,25,5,-5],"dils":[1.125,1.075,1.025,0.925,0.875,0.975],"loop_number":"NA","everTouched":null},{"id":"test","shape":"trapezoid","outlier_type":3,"choice":3,"outlierPosition":3,"success":true,"majorityOfMostRegularShapes":true,"rt":13988.499999999476,"rot1":-15,"rot2":-5,"rot3":15,"rot4":-25,"rot5":5,"rot6":25,"dil1":1.075,"dil2":0.875,"dil3":1.025,"dil4":0.975,"dil5":0.925,"dil6":1.125,"rots":[-15,-5,15,-25,5,25],"dils":[1.075,0.875,1.025,0.975,0.925,1.125],"loop_number":"NA","everTouched":null},{"id":"test","shape":"losange","outlier_type":2,"choice":4,"outlierPosition":4,"success":true,"majorityOfMostRegularShapes":true,"rt":3455.999999998312,"rot1":-25,"rot2":25,"rot3":15,"rot4":5,"rot5":-5,"rot6":-15,"dil1":0.975,"dil2":0.875,"dil3":1.125,"dil4":1.075,"dil5":0.925,"dil6":1.025,"rots":[-25,25,15,5,-5,-15],"dils":[0.975,0.875,1.125,1.075,0.925,1.025],"loop_number":"NA","everTouched":null},{"id":"test","shape":"isoTrapezoid","outlier_type":1,"choice":1,"outlierPosition":1,"success":true,"majorityOfMostRegularShapes":true,"rt":2688.1000000066706,"rot1":25,"rot2":-5,"rot3":-25,"rot4":15,"rot5":5,"rot6":-15,"dil1":1.025,"dil2":1.125,"dil3":0.975,"dil4":0.925,"dil5":0.875,"dil6":1.075,"rots":[25,-5,-25,15,5,-15],"dils":[1.025,1.125,0.975,0.925,0.875,1.075],"loop_number":"NA","everTouched":null},{"id":"test","shape":"hinge","outlier_type":0,"choice":3,"outlierPosition":3,"success":true,"majorityOfMostRegularShapes":true,"rt":6961.199999997916,"rot1":-5,"rot2":-25,"rot3":25,"rot4":-15,"rot5":5,"rot6":15,"dil1":0.875,"dil2":0.975,"dil3":1.025,"dil4":1.125,"dil5":1.075,"dil6":0.925,"rots":[-5,-25,25,-15,5,15],"dils":[0.875,0.975,1.025,1.125,1.075,0.925],"loop_number":"NA","everTouched":null},{"id":"test","shape":"rectangle","outlier_type":3,"choice":2,"outlierPosition":2,"success":true,"majorityOfMostRegularShapes":true,"rt":2316.400000003341,"rot1":-15,"rot2":15,"rot3":-25,"rot4":5,"rot5":-5,"rot6":25,"dil1":1.125,"dil2":0.875,"dil3":1.025,"dil4":0.975,"dil5":0.925,"dil6":1.075,"rots":[-15,15,-25,5,-5,25],"dils":[1.125,0.875,1.025,0.975,0.925,1.075],"loop_number":"NA","everTouched":null},{"id":"test","shape":"parallelogram","outlier_type":2,"choice":4,"outlierPosition":4,"success":true,"majorityOfMostRegularShapes":true,"rt":2470.99999999773,"rot1":25,"rot2":-15,"rot3":-25,"rot4":5,"rot5":-5,"rot6":15,"dil1":1.125,"dil2":0.925,"dil3":1.025,"dil4":0.875,"dil5":1.075,"dil6":0.975,"rots":[25,-15,-25,5,-5,15],"dils":[1.125,0.925,1.025,0.875,1.075,0.975],"loop_number":"NA","everTouched":null},{"id":"test","shape":"square","outlier_type":1,"choice":2,"outlierPosition":2,"success":true,"majorityOfMostRegularShapes":true,"rt":1820.899999998801,"rot1":5,"rot2":-5,"rot3":25,"rot4":15,"rot5":-25,"rot6":-15,"dil1":1.075,"dil2":1.025,"dil3":0.925,"dil4":1.125,"dil5":0.975,"dil6":0.875,"rots":[5,-5,25,15,-25,-15],"dils":[1.075,1.025,0.925,1.125,0.975,0.875],"loop_number":"NA","everTouched":null},{"id":"test","shape":"trapezoid","outlier_type":0,"choice":1,"outlierPosition":1,"success":true,"majorityOfMostRegularShapes":true,"rt":3694.499999997788,"rot1":-25,"rot2":25,"rot3":-5,"rot4":15,"rot5":5,"rot6":-15,"dil1":1.025,"dil2":0.875,"dil3":1.075,"dil4":1.125,"dil5":0.925,"dil6":0.975,"rots":[-25,25,-5,15,5,-15],"dils":[1.025,0.875,1.075,1.125,0.925,0.975],"loop_number":"NA","everTouched":null},{"id":"test","shape":"rustedHinge","outlier_type":2,"choice":0,"outlierPosition":0,"success":true,"majorityOfMostRegularShapes":true,"rt":6597.900000000664,"rot1":-25,"rot2":15,"rot3":25,"rot4":-15,"rot5":5,"rot6":-5,"dil1":1.025,"dil2":1.125,"dil3":0.875,"dil4":0.925,"dil5":0.975,"dil6":1.075,"rots":[-25,15,25,-15,5,-5],"dils":[1.025,1.125,0.875,0.925,0.975,1.075],"loop_number":"NA","everTouched":null},{"id":"test","shape":"parallelogram","outlier_type":3,"choice":1,"outlierPosition":1,"success":true,"majorityOfMostRegularShapes":true,"rt":3450.1000000018394,"rot1":-25,"rot2":25,"rot3":-15,"rot4":-5,"rot5":15,"rot6":5,"dil1":1.075,"dil2":1.025,"dil3":0.875,"dil4":0.925,"dil5":1.125,"dil6":0.975,"rots":[-25,25,-15,-5,15,5],"dils":[1.075,1.025,0.875,0.925,1.125,0.975],"loop_number":"NA","everTouched":null},{"id":"test","shape":"rustedHinge","outlier_type":0,"choice":0,"outlierPosition":0,"success":true,"majorityOfMostRegularShapes":true,"rt":2742.099999995844,"rot1":25,"rot2":5,"rot3":-25,"rot4":15,"rot5":-5,"rot6":-15,"dil1":1.125,"dil2":0.875,"dil3":1.075,"dil4":0.975,"dil5":1.025,"dil6":0.925,"rots":[25,5,-25,15,-5,-15],"dils":[1.125,0.875,1.075,0.975,1.025,0.925],"loop_number":"NA","everTouched":null},{"id":"test","shape":"isoTrapezoid","outlier_type":2,"choice":4,"outlierPosition":4,"success":true,"majorityOfMostRegularShapes":true,"rt":2856.7000000039116,"rot1":-5,"rot2":-15,"rot3":5,"rot4":15,"rot5":25,"rot6":-25,"dil1":1.025,"dil2":1.075,"dil3":0.975,"dil4":1.125,"dil5":0.875,"dil6":0.925,"rots":[-5,-15,5,15,25,-25],"dils":[1.025,1.075,0.975,1.125,0.875,0.925],"loop_number":"NA","everTouched":null},{"id":"test","shape":"parallelogram","outlier_type":0,"choice":4,"outlierPosition":4,"success":true,"majorityOfMostRegularShapes":true,"rt":2095.3999999983353,"rot1":-25,"rot2":5,"rot3":15,"rot4":-5,"rot5":25,"rot6":-15,"dil1":1.075,"dil2":1.125,"dil3":1.025,"dil4":0.875,"dil5":0.925,"dil6":0.975,"rots":[-25,5,15,-5,25,-15],"dils":[1.075,1.125,1.025,0.875,0.925,0.975],"loop_number":"NA","everTouched":null},{"id":"test","shape":"kite","outlier_type":2,"choice":4,"outlierPosition":4,"success":true,"majorityOfMostRegularShapes":true,"rt":3124.500000005355,"rot1":15,"rot2":5,"rot3":-25,"rot4":-15,"rot5":-5,"rot6":25,"dil1":1.125,"dil2":0.975,"dil3":0.925,"dil4":0.875,"dil5":1.025,"dil6":1.075,"rots":[15,5,-25,-15,-5,25],"dils":[1.125,0.975,0.925,0.875,1.025,1.075],"loop_number":"NA","everTouched":null},{"id":"test","shape":"rustedHinge","outlier_type":1,"choice":2,"outlierPosition":2,"success":true,"majorityOfMostRegularShapes":true,"rt":2734.7999999983585,"rot1":-5,"rot2":5,"rot3":25,"rot4":15,"rot5":-15,"rot6":-25,"dil1":1.075,"dil2":1.125,"dil3":1.025,"dil4":0.975,"dil5":0.925,"dil6":0.875,"rots":[-5,5,25,15,-15,-25],"dils":[1.075,1.125,1.025,0.975,0.925,0.875],"loop_number":"NA","everTouched":null},{"id":"test","shape":"random","outlier_type":2,"choice":1,"outlierPosition":2,"success":false,"majorityOfMostRegularShapes":true,"rt":9020.100000001548,"rot1":-25,"rot2":-5,"rot3":15,"rot4":5,"rot5":-15,"rot6":25,"dil1":1.125,"dil2":0.925,"dil3":0.975,"dil4":1.025,"dil5":0.875,"dil6":1.075,"rots":[-25,-5,15,5,-15,25],"dils":[1.125,0.925,0.975,1.025,0.875,1.075],"loop_number":"NA","everTouched":null},{"id":"test","shape":"parallelogram","outlier_type":1,"choice":5,"outlierPosition":5,"success":true,"majorityOfMostRegularShapes":true,"rt":3851.600000001781,"rot1":-15,"rot2":-25,"rot3":25,"rot4":15,"rot5":-5,"rot6":5,"dil1":1.125,"dil2":0.875,"dil3":1.075,"dil4":0.925,"dil5":1.025,"dil6":0.975,"rots":[-15,-25,25,15,-5,5],"dils":[1.125,0.875,1.075,0.925,1.025,0.975],"loop_number":"NA","everTouched":null},{"id":"test","shape":"rustedHinge","outlier_type":3,"choice":1,"outlierPosition":1,"success":true,"majorityOfMostRegularShapes":true,"rt":5700.599999996484,"rot1":-5,"rot2":15,"rot3":25,"rot4":-25,"rot5":-15,"rot6":5,"dil1":1.125,"dil2":0.975,"dil3":1.075,"dil4":1.025,"dil5":0.925,"dil6":0.875,"rots":[-5,15,25,-25,-15,5],"dils":[1.125,0.975,1.075,1.025,0.925,0.875],"loop_number":"NA","everTouched":null},{"id":"test","shape":"isoTrapezoid","outlier_type":0,"choice":3,"outlierPosition":3,"success":true,"majorityOfMostRegularShapes":true,"rt":3453.799999995681,"rot1":5,"rot2":-5,"rot3":-15,"rot4":-25,"rot5":25,"rot6":15,"dil1":0.875,"dil2":1.075,"dil3":0.975,"dil4":1.025,"dil5":0.925,"dil6":1.125,"rots":[5,-5,-15,-25,25,15],"dils":[0.875,1.075,0.975,1.025,0.925,1.125],"loop_number":"NA","everTouched":null},{"id":"test","shape":"rightKite","outlier_type":3,"choice":1,"outlierPosition":1,"success":true,"majorityOfMostRegularShapes":true,"rt":6295.399999995425,"rot1":15,"rot2":-25,"rot3":25,"rot4":5,"rot5":-15,"rot6":-5,"dil1":1.125,"dil2":0.975,"dil3":0.925,"dil4":1.025,"dil5":0.875,"dil6":1.075,"rots":[15,-25,25,5,-15,-5],"dils":[1.125,0.975,0.925,1.025,0.875,1.075],"loop_number":"NA","everTouched":null},{"id":"test","shape":"square","outlier_type":0,"choice":0,"outlierPosition":0,"success":true,"majorityOfMostRegularShapes":true,"rt":2077.2999999971944,"rot1":-25,"rot2":-15,"rot3":-5,"rot4":15,"rot5":25,"rot6":5,"dil1":0.925,"dil2":1.125,"dil3":1.025,"dil4":0.875,"dil5":1.075,"dil6":0.975,"rots":[-25,-15,-5,15,25,5],"dils":[0.925,1.125,1.025,0.875,1.075,0.975],"loop_number":"NA","everTouched":null},{"id":"test","shape":"hinge","outlier_type":2,"choice":2,"outlierPosition":2,"success":true,"majorityOfMostRegularShapes":true,"rt":3141.200000005483,"rot1":25,"rot2":-25,"rot3":-15,"rot4":-5,"rot5":15,"rot6":5,"dil1":0.875,"dil2":1.125,"dil3":0.925,"dil4":1.025,"dil5":1.075,"dil6":0.975,"rots":[25,-25,-15,-5,15,5],"dils":[0.875,1.125,0.925,1.025,1.075,0.975],"loop_number":"NA","everTouched":null},{"id":"test","shape":"rectangle","outlier_type":1,"choice":3,"outlierPosition":3,"success":true,"majorityOfMostRegularShapes":true,"rt":1919.3000000013853,"rot1":5,"rot2":-15,"rot3":15,"rot4":25,"rot5":-5,"rot6":-25,"dil1":1.075,"dil2":1.025,"dil3":0.925,"dil4":1.125,"dil5":0.875,"dil6":0.975,"rots":[5,-15,15,25,-5,-25],"dils":[1.075,1.025,0.925,1.125,0.875,0.975],"loop_number":"NA","everTouched":null}],"desiredDistance":0.3,"trial_type":"oddball-grid","trial_index":3,"time_elapsed":408526,"internal_node_id":"0.0-3.0","ID":"33jpbkk6ul"},{"success":true,"trial_type":"fullscreen","trial_index":4,"time_elapsed":422274,"internal_node_id":"0.0-4.0","ID":"33jpbkk6ul"}]