[{"success":true,"trial_type":"fullscreen","trial_index":0,"time_elapsed":47220,"internal_node_id":"0.0-0.0","ID":"1p2wmdpveq"},{"results":[{"id":"train-images","shape":"8","outlier_type":"NA","choice":2,"outlierPosition":2,"success":true,"majorityOfMostRegularShapes":"NA","rt":2173.9999999990687,"rot1":-15,"rot2":5,"rot3":25,"rot4":15,"rot5":-25,"rot6":-5,"dil1":0.875,"dil2":1.025,"dil3":0.975,"dil4":1.075,"dil5":0.925,"dil6":1.125,"rots":[-15,5,25,15,-25,-5],"dils":[0.875,1.025,0.975,1.075,0.925,1.125],"loop_number":1,"everTouched":null},{"id":"train-images","shape":"4","outlier_type":"NA","choice":2,"outlierPosition":2,"success":true,"majorityOfMostRegularShapes":"NA","rt":1565.2999999947497,"rot1":15,"rot2":5,"rot3":-25,"rot4":-15,"rot5":-5,"rot6":25,"dil1":1.125,"dil2":1.075,"dil3":0.975,"dil4":0.875,"dil5":1.025,"dil6":0.925,"rots":[15,5,-25,-15,-5,25],"dils":[1.125,1.075,0.975,0.875,1.025,0.925],"loop_number":1,"everTouched":null},{"id":"train-images","shape":"5","outlier_type":"NA","choice":3,"outlierPosition":0,"success":false,"majorityOfMostRegularShapes":"NA","rt":4193.8999999983935,"rot1":-5,"rot2":-15,"rot3":15,"rot4":25,"rot5":-25,"rot6":5,"dil1":1.125,"dil2":0.925,"dil3":1.075,"dil4":1.025,"dil5":0.875,"dil6":0.975,"rots":[-5,-15,15,25,-25,5],"dils":[1.125,0.925,1.075,1.025,0.875,0.975],"loop_number":1,"everTouched":null},{"id":"train-images","shape":"7","outlier_type":"NA","choice":5,"outlierPosition":5,"success":true,"majorityOfMostRegularShapes":"NA","rt":2023.3999999982188,"rot1":5,"rot2":25,"rot3":-15,"rot4":-25,"rot5":15,"rot6":-5,"dil1":1.125,"dil2":1.025,"dil3":1.075,"dil4":0.875,"dil5":0.975,"dil6":0.925,"rots":[5,25,-15,-25,15,-5],"dils":[1.125,1.025,1.075,0.875,0.975,0.925],"loop_number":1,"everTouched":null},{"id":"train-images","shape":"2","outlier_type":"NA","choice":3,"outlierPosition":3,"success":true,"majorityOfMostRegularShapes":"NA","rt":1086.0000000029686,"rot1":5,"rot2":-15,"rot3":-25,"rot4":25,"rot5":-5,"rot6":15,"dil1":1.075,"dil2":1.125,"dil3":1.025,"dil4":0.875,"dil5":0.925,"dil6":0.975,"rots":[5,-15,-25,25,-5,15],"dils":[1.075,1.125,1.025,0.875,0.925,0.975],"loop_number":1,"everTouched":null},{"id":"train-images","shape":"9","outlier_type":"NA","choice":5,"outlierPosition":5,"success":true,"majorityOfMostRegularShapes":"NA","rt":891.6000000026543,"rot1":-25,"rot2":25,"rot3":15,"rot4":-15,"rot5":5,"rot6":-5,"dil1":0.975,"dil2":0.875,"dil3":1.075,"dil4":1.025,"dil5":1.125,"dil6":0.925,"rots":[-25,25,15,-15,5,-5],"dils":[0.975,0.875,1.075,1.025,1.125,0.925],"loop_number":1,"everTouched":null},{"id":"train-images","shape":"10","outlier_type":"NA","choice":5,"outlierPosition":5,"success":true,"majorityOfMostRegularShapes":"NA","rt":962.3999999967054,"rot1":5,"rot2":25,"rot3":-5,"rot4":-25,"rot5":15,"rot6":-15,"dil1":0.925,"dil2":0.975,"dil3":1.075,"dil4":0.875,"dil5":1.125,"dil6":1.025,"rots":[5,25,-5,-25,15,-15],"dils":[0.925,0.975,1.075,0.875,1.125,1.025],"loop_number":1,"everTouched":null},{"id":"train-images","shape":"3","outlier_type":"NA","choice":4,"outlierPosition":4,"success":true,"majorityOfMostRegularShapes":"NA","rt":1541.7000000015832,"rot1":5,"rot2":-15,"rot3":15,"rot4":-5,"rot5":-25,"rot6":25,"dil1":1.025,"dil2":0.875,"dil3":0.975,"dil4":0.925,"dil5":1.075,"dil6":1.125,"rots":[5,-15,15,-5,-25,25],"dils":[1.025,0.875,0.975,0.925,1.075,1.125],"loop_number":1,"everTouched":null},{"id":"train-images","shape":"6","outlier_type":"NA","choice":1,"outlierPosition":1,"success":true,"majorityOfMostRegularShapes":"NA","rt":1012.2999999948661,"rot1":15,"rot2":-15,"rot3":-5,"rot4":25,"rot5":-25,"rot6":5,"dil1":0.975,"dil2":0.875,"dil3":0.925,"dil4":1.125,"dil5":1.075,"dil6":1.025,"rots":[15,-15,-5,25,-25,5],"dils":[0.975,0.875,0.925,1.125,1.075,1.025],"loop_number":1,"everTouched":null},{"id":"train-images","shape":"1","outlier_type":"NA","choice":1,"outlierPosition":1,"success":true,"majorityOfMostRegularShapes":"NA","rt":904.9000000013621,"rot1":-5,"rot2":-25,"rot3":-15,"rot4":5,"rot5":15,"rot6":25,"dil1":0.975,"dil2":1.075,"dil3":1.025,"dil4":0.875,"dil5":1.125,"dil6":0.925,"rots":[-5,-25,-15,5,15,25],"dils":[0.975,1.075,1.025,0.875,1.125,0.925],"loop_number":1,"everTouched":null}],"trial_type":"oddball-grid-image","trial_index":1,"time_elapsed":93197,"internal_node_id":"0.0-1.0","ID":"1p2wmdpveq"},{"results":[{"id":"train","shape":null,"outlier_type":null,"choice":5,"outlierPosition":5,"success":true,"majorityOfMostRegularShapes":null,"rt":1800.0000000029104,"rot1":-25,"rot2":25,"rot3":15,"rot4":5,"rot5":-15,"rot6":-5,"dil1":0.975,"dil2":1.125,"dil3":0.875,"dil4":0.925,"dil5":1.025,"dil6":1.075,"rots":[-25,25,15,5,-15,-5],"dils":[0.975,1.125,0.875,0.925,1.025,1.075],"loop_number":1,"everTouched":null},{"id":"train","shape":null,"outlier_type":null,"choice":5,"outlierPosition":5,"success":true,"majorityOfMostRegularShapes":null,"rt":1470.500000003085,"rot1":15,"rot2":5,"rot3":-5,"rot4":25,"rot5":-25,"rot6":-15,"dil1":1.075,"dil2":1.125,"dil3":0.975,"dil4":0.875,"dil5":1.025,"dil6":0.925,"rots":[15,5,-5,25,-25,-15],"dils":[1.075,1.125,0.975,0.875,1.025,0.925],"loop_number":1,"everTouched":null},{"id":"train","shape":null,"outlier_type":null,"choice":5,"outlierPosition":5,"success":true,"majorityOfMostRegularShapes":null,"rt":1274.7000000017579,"rot1":25,"rot2":-25,"rot3":5,"rot4":15,"rot5":-5,"rot6":-15,"dil1":1.075,"dil2":0.875,"dil3":1.025,"dil4":0.975,"dil5":0.925,"dil6":1.125,"rots":[25,-25,5,15,-5,-15],"dils":[1.075,0.875,1.025,0.975,0.925,1.125],"loop_number":1,"everTouched":null},{"id":"train","shape":null,"outlier_type":null,"choice":0,"outlierPosition":0,"success":true,"majorityOfMostRegularShapes":null,"rt":1083.0000000059954,"rot1":-5,"rot2":25,"rot3":5,"rot4":-25,"rot5":15,"rot6":-15,"dil1":0.875,"dil2":1.075,"dil3":0.975,"dil4":1.125,"dil5":1.025,"dil6":0.925,"rots":[-5,25,5,-25,15,-15],"dils":[0.875,1.075,0.975,1.125,1.025,0.925],"loop_number":1,"everTouched":null},{"id":"train","shape":null,"outlier_type":null,"choice":5,"outlierPosition":5,"success":true,"majorityOfMostRegularShapes":null,"rt":1000.899999999092,"rot1":-15,"rot2":25,"rot3":-25,"rot4":5,"rot5":15,"rot6":-5,"dil1":0.875,"dil2":0.925,"dil3":0.975,"dil4":1.025,"dil5":1.125,"dil6":1.075,"rots":[-15,25,-25,5,15,-5],"dils":[0.875,0.925,0.975,1.025,1.125,1.075],"loop_number":1,"everTouched":null},{"id":"train","shape":null,"outlier_type":null,"choice":2,"outlierPosition":2,"success":true,"majorityOfMostRegularShapes":null,"rt":1947.199999995064,"rot1":15,"rot2":-15,"rot3":25,"rot4":5,"rot5":-25,"rot6":-5,"dil1":1.025,"dil2":0.925,"dil3":1.075,"dil4":0.875,"dil5":0.975,"dil6":1.125,"rots":[15,-15,25,5,-25,-5],"dils":[1.025,0.925,1.075,0.875,0.975,1.125],"loop_number":1,"everTouched":null}],"desiredDistance":0.3,"trial_type":"oddball-grid-easy","trial_index":2,"time_elapsed":111937,"internal_node_id":"0.0-2.0","ID":"1p2wmdpveq"},{"results":[{"id":"test","shape":"losange","outlier_type":3,"choice":3,"outlierPosition":3,"success":true,"majorityOfMostRegularShapes":true,"rt":2189.9000000048545,"rot1":5,"rot2":-15,"rot3":15,"rot4":25,"rot5":-5,"rot6":-25,"dil1":1.125,"dil2":0.925,"dil3":1.075,"dil4":0.975,"dil5":0.875,"dil6":1.025,"rots":[5,-15,15,25,-5,-25],"dils":[1.125,0.925,1.075,0.975,0.875,1.025],"loop_number":"NA","everTouched":null},{"id":"test","shape":"square","outlier_type":1,"choice":5,"outlierPosition":5,"success":true,"majorityOfMostRegularShapes":true,"rt":1755.1999999996042,"rot1":25,"rot2":15,"rot3":-5,"rot4":-15,"rot5":5,"rot6":-25,"dil1":1.025,"dil2":1.125,"dil3":1.075,"dil4":0.925,"dil5":0.975,"dil6":0.875,"rots":[25,15,-5,-15,5,-25],"dils":[1.025,1.125,1.075,0.925,0.975,0.875],"loop_number":"NA","everTouched":null},{"id":"test","shape":"trapezoid","outlier_type":2,"choice":4,"outlierPosition":4,"success":true,"majorityOfMostRegularShapes":true,"rt":5123.500000001513,"rot1":15,"rot2":-5,"rot3":5,"rot4":-15,"rot5":-25,"rot6":25,"dil1":0.975,"dil2":0.875,"dil3":1.025,"dil4":1.125,"dil5":1.075,"dil6":0.925,"rots":[15,-5,5,-15,-25,25],"dils":[0.975,0.875,1.025,1.125,1.075,0.925],"loop_number":"NA","everTouched":null},{"id":"test","shape":"random","outlier_type":1,"choice":4,"outlierPosition":5,"success":false,"majorityOfMostRegularShapes":true,"rt":8453.199999996286,"rot1":5,"rot2":-5,"rot3":-15,"rot4":15,"rot5":-25,"rot6":25,"dil1":0.925,"dil2":0.975,"dil3":1.075,"dil4":1.125,"dil5":1.025,"dil6":0.875,"rots":[5,-5,-15,15,-25,25],"dils":[0.925,0.975,1.075,1.125,1.025,0.875],"loop_number":"NA","everTouched":null},{"id":"test","shape":"rightKite","outlier_type":2,"choice":0,"outlierPosition":0,"success":true,"majorityOfMostRegularShapes":true,"rt":3417.300000000978,"rot1":15,"rot2":-25,"rot3":5,"rot4":-15,"rot5":-5,"rot6":25,"dil1":0.975,"dil2":0.875,"dil3":1.025,"dil4":1.075,"dil5":0.925,"dil6":1.125,"rots":[15,-25,5,-15,-5,25],"dils":[0.975,0.875,1.025,1.075,0.925,1.125],"loop_number":"NA","everTouched":null},{"id":"test","shape":"hinge","outlier_type":0,"choice":2,"outlierPosition":1,"success":false,"majorityOfMostRegularShapes":true,"rt":4809.800000002724,"rot1":-15,"rot2":25,"rot3":5,"rot4":-5,"rot5":15,"rot6":-25,"dil1":1.125,"dil2":0.975,"dil3":0.875,"dil4":1.075,"dil5":0.925,"dil6":1.025,"rots":[-15,25,5,-5,15,-25],"dils":[1.125,0.975,0.875,1.075,0.925,1.025],"loop_number":"NA","everTouched":null},{"id":"test","shape":"parallelogram","outlier_type":2,"choice":4,"outlierPosition":4,"success":true,"majorityOfMostRegularShapes":true,"rt":2920.5999999976484,"rot1":5,"rot2":-5,"rot3":25,"rot4":-15,"rot5":15,"rot6":-25,"dil1":1.075,"dil2":0.925,"dil3":0.875,"dil4":1.125,"dil5":1.025,"dil6":0.975,"rots":[5,-5,25,-15,15,-25],"dils":[1.075,0.925,0.875,1.125,1.025,0.975],"loop_number":"NA","everTouched":null},{"id":"test","shape":"rightKite","outlier_type":3,"choice":1,"outlierPosition":1,"success":true,"majorityOfMostRegularShapes":true,"rt":3538.5000000023865,"rot1":5,"rot2":-15,"rot3":25,"rot4":-25,"rot5":15,"rot6":-5,"dil1":1.125,"dil2":0.875,"dil3":0.925,"dil4":1.075,"dil5":0.975,"dil6":1.025,"rots":[5,-15,25,-25,15,-5],"dils":[1.125,0.875,0.925,1.075,0.975,1.025],"loop_number":"NA","everTouched":null},{"id":"test","shape":"rustedHinge","outlier_type":2,"choice":2,"outlierPosition":2,"success":true,"majorityOfMostRegularShapes":true,"rt":3957.5999999942724,"rot1":5,"rot2":-25,"rot3":-15,"rot4":-5,"rot5":15,"rot6":25,"dil1":1.025,"dil2":0.925,"dil3":1.125,"dil4":0.875,"dil5":0.975,"dil6":1.075,"rots":[5,-25,-15,-5,15,25],"dils":[1.025,0.925,1.125,0.875,0.975,1.075],"loop_number":"NA","everTouched":null},{"id":"test","shape":"losange","outlier_type":0,"choice":1,"outlierPosition":5,"success":false,"majorityOfMostRegularShapes":true,"rt":6488.400000002002,"rot1":-25,"rot2":25,"rot3":-15,"rot4":-5,"rot5":5,"rot6":15,"dil1":0.925,"dil2":0.875,"dil3":1.125,"dil4":1.075,"dil5":1.025,"dil6":0.975,"rots":[-25,25,-15,-5,5,15],"dils":[0.925,0.875,1.125,1.075,1.025,0.975],"loop_number":"NA","everTouched":null},{"id":"test","shape":"isoTrapezoid","outlier_type":2,"choice":0,"outlierPosition":0,"success":true,"majorityOfMostRegularShapes":true,"rt":3020.1000000015483,"rot1":-15,"rot2":-5,"rot3":15,"rot4":5,"rot5":-25,"rot6":25,"dil1":1.025,"dil2":1.075,"dil3":0.875,"dil4":0.925,"dil5":1.125,"dil6":0.975,"rots":[-15,-5,15,5,-25,25],"dils":[1.025,1.075,0.875,0.925,1.125,0.975],"loop_number":"NA","everTouched":null},{"id":"test","shape":"square","outlier_type":3,"choice":4,"outlierPosition":1,"success":false,"majorityOfMostRegularShapes":true,"rt":1974.2000000042026,"rot1":15,"rot2":-5,"rot3":5,"rot4":-25,"rot5":-15,"rot6":25,"dil1":1.025,"dil2":0.875,"dil3":0.975,"dil4":1.125,"dil5":0.925,"dil6":1.075,"rots":[15,-5,5,-25,-15,25],"dils":[1.025,0.875,0.975,1.125,0.925,1.075],"loop_number":"NA","everTouched":null},{"id":"test","shape":"kite","outlier_type":2,"choice":4,"outlierPosition":4,"success":true,"majorityOfMostRegularShapes":true,"rt":3093.799999995099,"rot1":-25,"rot2":15,"rot3":25,"rot4":5,"rot5":-15,"rot6":-5,"dil1":0.925,"dil2":0.975,"dil3":1.075,"dil4":1.025,"dil5":1.125,"dil6":0.875,"rots":[-25,15,25,5,-15,-5],"dils":[0.925,0.975,1.075,1.025,1.125,0.875],"loop_number":"NA","everTouched":null},{"id":"test","shape":"parallelogram","outlier_type":1,"choice":3,"outlierPosition":3,"success":true,"majorityOfMostRegularShapes":true,"rt":3742.4000000028173,"rot1":25,"rot2":-25,"rot3":15,"rot4":-5,"rot5":-15,"rot6":5,"dil1":0.975,"dil2":1.075,"dil3":0.875,"dil4":1.125,"dil5":0.925,"dil6":1.025,"rots":[25,-25,15,-5,-15,5],"dils":[0.975,1.075,0.875,1.125,0.925,1.025],"loop_number":"NA","everTouched":null},{"id":"test","shape":"square","outlier_type":2,"choice":0,"outlierPosition":0,"success":true,"majorityOfMostRegularShapes":true,"rt":2424.299999998766,"rot1":-25,"rot2":15,"rot3":-5,"rot4":5,"rot5":-15,"rot6":25,"dil1":0.925,"dil2":1.025,"dil3":1.075,"dil4":1.125,"dil5":0.875,"dil6":0.975,"rots":[-25,15,-5,5,-15,25],"dils":[0.925,1.025,1.075,1.125,0.875,0.975],"loop_number":"NA","everTouched":null},{"id":"test","shape":"losange","outlier_type":1,"choice":3,"outlierPosition":3,"success":true,"majorityOfMostRegularShapes":true,"rt":3647.399999994377,"rot1":25,"rot2":-5,"rot3":-15,"rot4":-25,"rot5":15,"rot6":5,"dil1":1.125,"dil2":1.075,"dil3":1.025,"dil4":0.975,"dil5":0.925,"dil6":0.875,"rots":[25,-5,-15,-25,15,5],"dils":[1.125,1.075,1.025,0.975,0.925,0.875],"loop_number":"NA","everTouched":null},{"id":"test","shape":"rightKite","outlier_type":0,"choice":1,"outlierPosition":1,"success":true,"majorityOfMostRegularShapes":true,"rt":6114.700000005541,"rot1":5,"rot2":-5,"rot3":-15,"rot4":-25,"rot5":25,"rot6":15,"dil1":1.025,"dil2":0.875,"dil3":0.925,"dil4":1.125,"dil5":0.975,"dil6":1.075,"rots":[5,-5,-15,-25,25,15],"dils":[1.025,0.875,0.925,1.125,0.975,1.075],"loop_number":"NA","everTouched":null},{"id":"test","shape":"rustedHinge","outlier_type":3,"choice":1,"outlierPosition":1,"success":true,"majorityOfMostRegularShapes":true,"rt":4464.599999999336,"rot1":5,"rot2":-5,"rot3":15,"rot4":25,"rot5":-25,"rot6":-15,"dil1":1.025,"dil2":1.125,"dil3":0.925,"dil4":0.875,"dil5":1.075,"dil6":0.975,"rots":[5,-5,15,25,-25,-15],"dils":[1.025,1.125,0.925,0.875,1.075,0.975],"loop_number":"NA","everTouched":null},{"id":"test","shape":"rectangle","outlier_type":2,"choice":2,"outlierPosition":2,"success":true,"majorityOfMostRegularShapes":true,"rt":1833.7999999930616,"rot1":-5,"rot2":5,"rot3":25,"rot4":-15,"rot5":-25,"rot6":15,"dil1":0.975,"dil2":0.875,"dil3":1.125,"dil4":1.025,"dil5":1.075,"dil6":0.925,"rots":[-5,5,25,-15,-25,15],"dils":[0.975,0.875,1.125,1.025,1.075,0.925],"loop_number":"NA","everTouched":null},{"id":"test","shape":"kite","outlier_type":0,"choice":4,"outlierPosition":4,"success":true,"majorityOfMostRegularShapes":true,"rt":3148.300000000745,"rot1":5,"rot2":15,"rot3":-15,"rot4":-25,"rot5":25,"rot6":-5,"dil1":0.875,"dil2":1.025,"dil3":0.925,"dil4":1.075,"dil5":1.125,"dil6":0.975,"rots":[5,15,-15,-25,25,-5],"dils":[0.875,1.025,0.925,1.075,1.125,0.975],"loop_number":"NA","everTouched":null},{"id":"test","shape":"hinge","outlier_type":1,"choice":5,"outlierPosition":0,"success":false,"majorityOfMostRegularShapes":true,"rt":5316.599999998289,"rot1":-25,"rot2":25,"rot3":-5,"rot4":5,"rot5":15,"rot6":-15,"dil1":0.925,"dil2":0.875,"dil3":1.125,"dil4":1.025,"dil5":1.075,"dil6":0.975,"rots":[-25,25,-5,5,15,-15],"dils":[0.925,0.875,1.125,1.025,1.075,0.975],"loop_number":"NA","everTouched":null},{"id":"test","shape":"isoTrapezoid","outlier_type":0,"choice":1,"outlierPosition":1,"success":true,"majorityOfMostRegularShapes":true,"rt":3712.599999998929,"rot1":15,"rot2":-15,"rot3":5,"rot4":25,"rot5":-5,"rot6":-25,"dil1":1.125,"dil2":1.075,"dil3":0.875,"dil4":0.925,"dil5":1.025,"dil6":0.975,"rots":[15,-15,5,25,-5,-25],"dils":[1.125,1.075,0.875,0.925,1.025,0.975],"loop_number":"NA","everTouched":null},{"id":"test","shape":"rightKite","outlier_type":1,"choice":1,"outlierPosition":1,"success":true,"majorityOfMostRegularShapes":true,"rt":4953.9999999979045,"rot1":-25,"rot2":-15,"rot3":25,"rot4":-5,"rot5":5,"rot6":15,"dil1":1.025,"dil2":0.875,"dil3":1.075,"dil4":0.925,"dil5":1.125,"dil6":0.975,"rots":[-25,-15,25,-5,5,15],"dils":[1.025,0.875,1.075,0.925,1.125,0.975],"loop_number":"NA","everTouched":null},{"id":"test","shape":"random","outlier_type":3,"choice":4,"outlierPosition":4,"success":true,"majorityOfMostRegularShapes":true,"rt":3832.399999999325,"rot1":5,"rot2":-15,"rot3":25,"rot4":-25,"rot5":15,"rot6":-5,"dil1":1.025,"dil2":0.875,"dil3":1.075,"dil4":1.125,"dil5":0.925,"dil6":0.975,"rots":[5,-15,25,-25,15,-5],"dils":[1.025,0.875,1.075,1.125,0.925,0.975],"loop_number":"NA","everTouched":null},{"id":"test","shape":"rectangle","outlier_type":0,"choice":4,"outlierPosition":4,"success":true,"majorityOfMostRegularShapes":true,"rt":1993.799999996554,"rot1":-25,"rot2":15,"rot3":-15,"rot4":-5,"rot5":25,"rot6":5,"dil1":1.125,"dil2":0.925,"dil3":1.075,"dil4":1.025,"dil5":0.975,"dil6":0.875,"rots":[-25,15,-15,-5,25,5],"dils":[1.125,0.925,1.075,1.025,0.975,0.875],"loop_number":"NA","everTouched":null},{"id":"test","shape":"random","outlier_type":2,"choice":1,"outlierPosition":1,"success":true,"majorityOfMostRegularShapes":true,"rt":4530.800000000454,"rot1":15,"rot2":-15,"rot3":25,"rot4":-5,"rot5":5,"rot6":-25,"dil1":1.025,"dil2":1.075,"dil3":0.875,"dil4":0.925,"dil5":0.975,"dil6":1.125,"rots":[15,-15,25,-5,5,-25],"dils":[1.025,1.075,0.875,0.925,0.975,1.125],"loop_number":"NA","everTouched":null},{"id":"test","shape":"rustedHinge","outlier_type":1,"choice":4,"outlierPosition":4,"success":true,"majorityOfMostRegularShapes":true,"rt":9244.500000000698,"rot1":25,"rot2":-15,"rot3":-5,"rot4":15,"rot5":5,"rot6":-25,"dil1":1.075,"dil2":0.875,"dil3":1.125,"dil4":0.975,"dil5":1.025,"dil6":0.925,"rots":[25,-15,-5,15,5,-25],"dils":[1.075,0.875,1.125,0.975,1.025,0.925],"loop_number":"NA","everTouched":null},{"id":"test","shape":"kite","outlier_type":3,"choice":5,"outlierPosition":5,"success":true,"majorityOfMostRegularShapes":true,"rt":4723.599999997532,"rot1":25,"rot2":15,"rot3":5,"rot4":-25,"rot5":-15,"rot6":-5,"dil1":0.925,"dil2":0.875,"dil3":0.975,"dil4":1.125,"dil5":1.075,"dil6":1.025,"rots":[25,15,5,-25,-15,-5],"dils":[0.925,0.875,0.975,1.125,1.075,1.025],"loop_number":"NA","everTouched":null},{"id":"test","shape":"rectangle","outlier_type":1,"choice":2,"outlierPosition":2,"success":true,"majorityOfMostRegularShapes":true,"rt":2029.2999999946915,"rot1":15,"rot2":5,"rot3":-5,"rot4":25,"rot5":-25,"rot6":-15,"dil1":1.125,"dil2":1.075,"dil3":0.875,"dil4":1.025,"dil5":0.925,"dil6":0.975,"rots":[15,5,-5,25,-25,-15],"dils":[1.125,1.075,0.875,1.025,0.925,0.975],"loop_number":"NA","everTouched":null},{"id":"test","shape":"isoTrapezoid","outlier_type":3,"choice":5,"outlierPosition":5,"success":true,"majorityOfMostRegularShapes":true,"rt":2390.400000003865,"rot1":25,"rot2":-5,"rot3":15,"rot4":-15,"rot5":5,"rot6":-25,"dil1":1.075,"dil2":1.025,"dil3":0.975,"dil4":0.925,"dil5":1.125,"dil6":0.875,"rots":[25,-5,15,-15,5,-25],"dils":[1.075,1.025,0.975,0.925,1.125,0.875],"loop_number":"NA","everTouched":null},{"id":"test","shape":"trapezoid","outlier_type":0,"choice":2,"outlierPosition":2,"success":true,"majorityOfMostRegularShapes":true,"rt":6634.70000000234,"rot1":5,"rot2":15,"rot3":-15,"rot4":-5,"rot5":-25,"rot6":25,"dil1":1.075,"dil2":0.975,"dil3":0.875,"dil4":0.925,"dil5":1.025,"dil6":1.125,"rots":[5,15,-15,-5,-25,25],"dils":[1.075,0.975,0.875,0.925,1.025,1.125],"loop_number":"NA","everTouched":null},{"id":"test","shape":"hinge","outlier_type":3,"choice":3,"outlierPosition":3,"success":true,"majorityOfMostRegularShapes":true,"rt":2279.3000000019674,"rot1":-25,"rot2":15,"rot3":-5,"rot4":-15,"rot5":25,"rot6":5,"dil1":0.875,"dil2":0.975,"dil3":0.925,"dil4":1.075,"dil5":1.025,"dil6":1.125,"rots":[-25,15,-5,-15,25,5],"dils":[0.875,0.975,0.925,1.075,1.025,1.125],"loop_number":"NA","everTouched":null},{"id":"test","shape":"parallelogram","outlier_type":0,"choice":0,"outlierPosition":0,"success":true,"majorityOfMostRegularShapes":true,"rt":3113.8999999966472,"rot1":5,"rot2":-15,"rot3":-25,"rot4":25,"rot5":-5,"rot6":15,"dil1":1.025,"dil2":1.125,"dil3":1.075,"dil4":0.875,"dil5":0.925,"dil6":0.975,"rots":[5,-15,-25,25,-5,15],"dils":[1.025,1.125,1.075,0.875,0.925,0.975],"loop_number":"NA","everTouched":null},{"id":"test","shape":"isoTrapezoid","outlier_type":1,"choice":4,"outlierPosition":4,"success":true,"majorityOfMostRegularShapes":true,"rt":2598.100000002887,"rot1":15,"rot2":-15,"rot3":25,"rot4":-5,"rot5":5,"rot6":-25,"dil1":0.975,"dil2":0.925,"dil3":1.025,"dil4":1.125,"dil5":0.875,"dil6":1.075,"rots":[15,-15,25,-5,5,-25],"dils":[0.975,0.925,1.025,1.125,0.875,1.075],"loop_number":"NA","everTouched":null},{"id":"test","shape":"hinge","outlier_type":2,"choice":4,"outlierPosition":4,"success":true,"majorityOfMostRegularShapes":true,"rt":2672.3999999958323,"rot1":-25,"rot2":-15,"rot3":5,"rot4":-5,"rot5":15,"rot6":25,"dil1":1.075,"dil2":1.025,"dil3":0.975,"dil4":1.125,"dil5":0.875,"dil6":0.925,"rots":[-25,-15,5,-5,15,25],"dils":[1.075,1.025,0.975,1.125,0.875,0.925],"loop_number":"NA","everTouched":null},{"id":"test","shape":"random","outlier_type":0,"choice":3,"outlierPosition":5,"success":false,"majorityOfMostRegularShapes":true,"rt":3191.099999996368,"rot1":-5,"rot2":15,"rot3":-25,"rot4":-15,"rot5":25,"rot6":5,"dil1":1.125,"dil2":1.075,"dil3":1.025,"dil4":0.925,"dil5":0.875,"dil6":0.975,"rots":[-5,15,-25,-15,25,5],"dils":[1.125,1.075,1.025,0.925,0.875,0.975],"loop_number":"NA","everTouched":null},{"id":"test","shape":"rectangle","outlier_type":3,"choice":0,"outlierPosition":0,"success":true,"majorityOfMostRegularShapes":true,"rt":1904.6999999991385,"rot1":15,"rot2":-25,"rot3":-5,"rot4":25,"rot5":-15,"rot6":5,"dil1":0.925,"dil2":0.975,"dil3":1.125,"dil4":0.875,"dil5":1.075,"dil6":1.025,"rots":[15,-25,-5,25,-15,5],"dils":[0.925,0.975,1.125,0.875,1.075,1.025],"loop_number":"NA","everTouched":null},{"id":"test","shape":"losange","outlier_type":2,"choice":3,"outlierPosition":3,"success":true,"majorityOfMostRegularShapes":true,"rt":3428.200000002107,"rot1":5,"rot2":25,"rot3":15,"rot4":-5,"rot5":-15,"rot6":-25,"dil1":0.975,"dil2":1.125,"dil3":1.075,"dil4":0.875,"dil5":1.025,"dil6":0.925,"rots":[5,25,15,-5,-15,-25],"dils":[0.975,1.125,1.075,0.875,1.025,0.925],"loop_number":"NA","everTouched":null},{"id":"test","shape":"square","outlier_type":0,"choice":3,"outlierPosition":3,"success":true,"majorityOfMostRegularShapes":true,"rt":1526.799999999639,"rot1":25,"rot2":15,"rot3":-15,"rot4":-25,"rot5":5,"rot6":-5,"dil1":0.925,"dil2":1.075,"dil3":1.125,"dil4":1.025,"dil5":0.875,"dil6":0.975,"rots":[25,15,-15,-25,5,-5],"dils":[0.925,1.075,1.125,1.025,0.875,0.975],"loop_number":"NA","everTouched":null},{"id":"test","shape":"parallelogram","outlier_type":3,"choice":0,"outlierPosition":0,"success":true,"majorityOfMostRegularShapes":true,"rt":2341.099999997823,"rot1":15,"rot2":-15,"rot3":-25,"rot4":25,"rot5":5,"rot6":-5,"dil1":1.075,"dil2":0.875,"dil3":0.925,"dil4":0.975,"dil5":1.125,"dil6":1.025,"rots":[15,-15,-25,25,5,-5],"dils":[1.075,0.875,0.925,0.975,1.125,1.025],"loop_number":"NA","everTouched":null},{"id":"test","shape":"trapezoid","outlier_type":1,"choice":4,"outlierPosition":4,"success":true,"majorityOfMostRegularShapes":true,"rt":2550.0000000029104,"rot1":5,"rot2":-5,"rot3":25,"rot4":-15,"rot5":-25,"rot6":15,"dil1":0.875,"dil2":1.075,"dil3":1.125,"dil4":0.925,"dil5":1.025,"dil6":0.975,"rots":[5,-5,25,-15,-25,15],"dils":[0.875,1.075,1.125,0.925,1.025,0.975],"loop_number":"NA","everTouched":null},{"id":"test","shape":"rustedHinge","outlier_type":0,"choice":0,"outlierPosition":0,"success":true,"majorityOfMostRegularShapes":true,"rt":2845.8000000027823,"rot1":5,"rot2":15,"rot3":-5,"rot4":-15,"rot5":-25,"rot6":25,"dil1":1.075,"dil2":1.025,"dil3":0.975,"dil4":1.125,"dil5":0.925,"dil6":0.875,"rots":[5,15,-5,-15,-25,25],"dils":[1.075,1.025,0.975,1.125,0.925,0.875],"loop_number":"NA","everTouched":null},{"id":"test","shape":"trapezoid","outlier_type":3,"choice":2,"outlierPosition":2,"success":true,"majorityOfMostRegularShapes":true,"rt":5721.700000001874,"rot1":-15,"rot2":-25,"rot3":15,"rot4":5,"rot5":25,"rot6":-5,"dil1":1.125,"dil2":0.925,"dil3":0.975,"dil4":1.025,"dil5":1.075,"dil6":0.875,"rots":[-15,-25,15,5,25,-5],"dils":[1.125,0.925,0.975,1.025,1.075,0.875],"loop_number":"NA","everTouched":null},{"id":"test","shape":"kite","outlier_type":1,"choice":2,"outlierPosition":2,"success":true,"majorityOfMostRegularShapes":true,"rt":4064.800000000105,"rot1":-5,"rot2":-25,"rot3":5,"rot4":25,"rot5":15,"rot6":-15,"dil1":0.875,"dil2":1.125,"dil3":1.025,"dil4":0.975,"dil5":0.925,"dil6":1.075,"rots":[-5,-25,5,25,15,-15],"dils":[0.875,1.125,1.025,0.975,0.925,1.075],"loop_number":"NA","everTouched":null}],"desiredDistance":0.3,"trial_type":"oddball-grid","trial_index":3,"time_elapsed":362497,"internal_node_id":"0.0-3.0","ID":"1p2wmdpveq"},{"success":true,"trial_type":"fullscreen","trial_index":4,"time_elapsed":369979,"internal_node_id":"0.0-4.0","ID":"1p2wmdpveq"}]