[{"success":true,"trial_type":"fullscreen","trial_index":0,"time_elapsed":75848,"internal_node_id":"0.0-0.0","ID":"mvaz7zj6sc"},{"results":[{"id":"train-images","shape":"9","outlier_type":"NA","choice":4,"outlierPosition":4,"success":true,"majorityOfMostRegularShapes":"NA","rt":5294.699999998556,"rot1":25,"rot2":-15,"rot3":-5,"rot4":15,"rot5":5,"rot6":-25,"dil1":1.025,"dil2":0.875,"dil3":1.075,"dil4":1.125,"dil5":0.975,"dil6":0.925,"rots":[25,-15,-5,15,5,-25],"dils":[1.025,0.875,1.075,1.125,0.975,0.925],"loop_number":1,"everTouched":null},{"id":"train-images","shape":"2","outlier_type":"NA","choice":4,"outlierPosition":4,"success":true,"majorityOfMostRegularShapes":"NA","rt":1215.200000006007,"rot1":-15,"rot2":25,"rot3":5,"rot4":-25,"rot5":15,"rot6":-5,"dil1":1.075,"dil2":0.875,"dil3":0.975,"dil4":1.125,"dil5":0.925,"dil6":1.025,"rots":[-15,25,5,-25,15,-5],"dils":[1.075,0.875,0.975,1.125,0.925,1.025],"loop_number":1,"everTouched":null},{"id":"train-images","shape":"1","outlier_type":"NA","choice":4,"outlierPosition":4,"success":true,"majorityOfMostRegularShapes":"NA","rt":934.9000000220258,"rot1":15,"rot2":-15,"rot3":-25,"rot4":-5,"rot5":25,"rot6":5,"dil1":0.875,"dil2":0.925,"dil3":1.125,"dil4":1.025,"dil5":0.975,"dil6":1.075,"rots":[15,-15,-25,-5,25,5],"dils":[0.875,0.925,1.125,1.025,0.975,1.075],"loop_number":1,"everTouched":null},{"id":"train-images","shape":"7","outlier_type":"NA","choice":3,"outlierPosition":3,"success":true,"majorityOfMostRegularShapes":"NA","rt":948.0000000039581,"rot1":-5,"rot2":-25,"rot3":25,"rot4":5,"rot5":-15,"rot6":15,"dil1":1.025,"dil2":1.075,"dil3":0.975,"dil4":1.125,"dil5":0.875,"dil6":0.925,"rots":[-5,-25,25,5,-15,15],"dils":[1.025,1.075,0.975,1.125,0.875,0.925],"loop_number":1,"everTouched":null},{"id":"train-images","shape":"10","outlier_type":"NA","choice":0,"outlierPosition":0,"success":true,"majorityOfMostRegularShapes":"NA","rt":1166.0000000265427,"rot1":-5,"rot2":5,"rot3":-15,"rot4":25,"rot5":15,"rot6":-25,"dil1":1.025,"dil2":0.875,"dil3":1.075,"dil4":1.125,"dil5":0.925,"dil6":0.975,"rots":[-5,5,-15,25,15,-25],"dils":[1.025,0.875,1.075,1.125,0.925,0.975],"loop_number":1,"everTouched":null},{"id":"train-images","shape":"3","outlier_type":"NA","choice":1,"outlierPosition":1,"success":true,"majorityOfMostRegularShapes":"NA","rt":1135.0000000093132,"rot1":25,"rot2":-15,"rot3":-5,"rot4":5,"rot5":15,"rot6":-25,"dil1":0.875,"dil2":0.975,"dil3":1.025,"dil4":1.125,"dil5":1.075,"dil6":0.925,"rots":[25,-15,-5,5,15,-25],"dils":[0.875,0.975,1.025,1.125,1.075,0.925],"loop_number":1,"everTouched":null},{"id":"train-images","shape":"6","outlier_type":"NA","choice":0,"outlierPosition":0,"success":true,"majorityOfMostRegularShapes":"NA","rt":1227.599999983795,"rot1":-15,"rot2":5,"rot3":25,"rot4":-5,"rot5":15,"rot6":-25,"dil1":0.925,"dil2":0.975,"dil3":1.075,"dil4":1.125,"dil5":0.875,"dil6":1.025,"rots":[-15,5,25,-5,15,-25],"dils":[0.925,0.975,1.075,1.125,0.875,1.025],"loop_number":1,"everTouched":null},{"id":"train-images","shape":"5","outlier_type":"NA","choice":0,"outlierPosition":0,"success":true,"majorityOfMostRegularShapes":"NA","rt":991.7999999888707,"rot1":5,"rot2":25,"rot3":-25,"rot4":-5,"rot5":-15,"rot6":15,"dil1":0.975,"dil2":0.925,"dil3":1.025,"dil4":1.125,"dil5":1.075,"dil6":0.875,"rots":[5,25,-25,-5,-15,15],"dils":[0.975,0.925,1.025,1.125,1.075,0.875],"loop_number":1,"everTouched":null},{"id":"train-images","shape":"8","outlier_type":"NA","choice":5,"outlierPosition":5,"success":true,"majorityOfMostRegularShapes":"NA","rt":1012.4000000068918,"rot1":5,"rot2":-25,"rot3":-15,"rot4":-5,"rot5":15,"rot6":25,"dil1":1.075,"dil2":0.925,"dil3":0.875,"dil4":0.975,"dil5":1.025,"dil6":1.125,"rots":[5,-25,-15,-5,15,25],"dils":[1.075,0.925,0.875,0.975,1.025,1.125],"loop_number":1,"everTouched":null},{"id":"train-images","shape":"4","outlier_type":"NA","choice":1,"outlierPosition":1,"success":true,"majorityOfMostRegularShapes":"NA","rt":932.4000000196975,"rot1":15,"rot2":25,"rot3":-15,"rot4":5,"rot5":-5,"rot6":-25,"dil1":1.075,"dil2":1.025,"dil3":0.925,"dil4":0.975,"dil5":0.875,"dil6":1.125,"rots":[15,25,-15,5,-5,-25],"dils":[1.075,1.025,0.925,0.975,0.875,1.125],"loop_number":1,"everTouched":null}],"trial_type":"oddball-grid-image","trial_index":1,"time_elapsed":121520,"internal_node_id":"0.0-1.0","ID":"mvaz7zj6sc"},{"results":[{"id":"train","shape":null,"outlier_type":null,"choice":4,"outlierPosition":4,"success":true,"majorityOfMostRegularShapes":null,"rt":974.499999982072,"rot1":5,"rot2":-15,"rot3":-25,"rot4":25,"rot5":15,"rot6":-5,"dil1":1.075,"dil2":0.875,"dil3":0.975,"dil4":1.025,"dil5":0.925,"dil6":1.125,"rots":[5,-15,-25,25,15,-5],"dils":[1.075,0.875,0.975,1.025,0.925,1.125],"loop_number":1,"everTouched":null},{"id":"train","shape":null,"outlier_type":null,"choice":1,"outlierPosition":1,"success":true,"majorityOfMostRegularShapes":null,"rt":950.0000000116415,"rot1":15,"rot2":25,"rot3":-5,"rot4":5,"rot5":-25,"rot6":-15,"dil1":0.925,"dil2":1.075,"dil3":0.875,"dil4":1.025,"dil5":0.975,"dil6":1.125,"rots":[15,25,-5,5,-25,-15],"dils":[0.925,1.075,0.875,1.025,0.975,1.125],"loop_number":1,"everTouched":null},{"id":"train","shape":null,"outlier_type":null,"choice":2,"outlierPosition":2,"success":true,"majorityOfMostRegularShapes":null,"rt":884.4999999855645,"rot1":5,"rot2":15,"rot3":-15,"rot4":25,"rot5":-5,"rot6":-25,"dil1":0.975,"dil2":1.125,"dil3":1.025,"dil4":1.075,"dil5":0.875,"dil6":0.925,"rots":[5,15,-15,25,-5,-25],"dils":[0.975,1.125,1.025,1.075,0.875,0.925],"loop_number":1,"everTouched":null},{"id":"train","shape":null,"outlier_type":null,"choice":1,"outlierPosition":1,"success":true,"majorityOfMostRegularShapes":null,"rt":883.0000000016298,"rot1":25,"rot2":-5,"rot3":-15,"rot4":-25,"rot5":5,"rot6":15,"dil1":0.925,"dil2":0.875,"dil3":1.025,"dil4":1.075,"dil5":0.975,"dil6":1.125,"rots":[25,-5,-15,-25,5,15],"dils":[0.925,0.875,1.025,1.075,0.975,1.125],"loop_number":1,"everTouched":null},{"id":"train","shape":null,"outlier_type":null,"choice":5,"outlierPosition":5,"success":true,"majorityOfMostRegularShapes":null,"rt":1016.6000000026543,"rot1":-15,"rot2":5,"rot3":-5,"rot4":15,"rot5":-25,"rot6":25,"dil1":0.975,"dil2":1.025,"dil3":1.125,"dil4":1.075,"dil5":0.925,"dil6":0.875,"rots":[-15,5,-5,15,-25,25],"dils":[0.975,1.025,1.125,1.075,0.925,0.875],"loop_number":1,"everTouched":null},{"id":"train","shape":null,"outlier_type":null,"choice":0,"outlierPosition":0,"success":true,"majorityOfMostRegularShapes":null,"rt":1231.2999999849126,"rot1":15,"rot2":-5,"rot3":-15,"rot4":25,"rot5":-25,"rot6":5,"dil1":1.025,"dil2":0.875,"dil3":0.925,"dil4":0.975,"dil5":1.075,"dil6":1.125,"rots":[15,-5,-15,25,-25,5],"dils":[1.025,0.875,0.925,0.975,1.075,1.125],"loop_number":1,"everTouched":null}],"desiredDistance":0.3,"trial_type":"oddball-grid-easy","trial_index":2,"time_elapsed":136588,"internal_node_id":"0.0-2.0","ID":"mvaz7zj6sc"},{"results":[{"id":"test","shape":"isoTrapezoid","outlier_type":0,"choice":3,"outlierPosition":3,"success":true,"majorityOfMostRegularShapes":true,"rt":3752.5000000023283,"rot1":-25,"rot2":-15,"rot3":-5,"rot4":25,"rot5":5,"rot6":15,"dil1":0.875,"dil2":1.075,"dil3":1.025,"dil4":0.925,"dil5":1.125,"dil6":0.975,"rots":[-25,-15,-5,25,5,15],"dils":[0.875,1.075,1.025,0.925,1.125,0.975],"loop_number":"NA","everTouched":null},{"id":"test","shape":"hinge","outlier_type":2,"choice":0,"outlierPosition":0,"success":true,"majorityOfMostRegularShapes":true,"rt":6613.199999992503,"rot1":15,"rot2":-15,"rot3":-5,"rot4":-25,"rot5":5,"rot6":25,"dil1":1.125,"dil2":0.925,"dil3":0.975,"dil4":1.025,"dil5":1.075,"dil6":0.875,"rots":[15,-15,-5,-25,5,25],"dils":[1.125,0.925,0.975,1.025,1.075,0.875],"loop_number":"NA","everTouched":null},{"id":"test","shape":"kite","outlier_type":0,"choice":1,"outlierPosition":1,"success":true,"majorityOfMostRegularShapes":true,"rt":11441.699999995762,"rot1":25,"rot2":-5,"rot3":15,"rot4":5,"rot5":-15,"rot6":-25,"dil1":0.875,"dil2":0.925,"dil3":1.075,"dil4":0.975,"dil5":1.125,"dil6":1.025,"rots":[25,-5,15,5,-15,-25],"dils":[0.875,0.925,1.075,0.975,1.125,1.025],"loop_number":"NA","everTouched":null},{"id":"test","shape":"random","outlier_type":3,"choice":2,"outlierPosition":2,"success":true,"majorityOfMostRegularShapes":true,"rt":24840.90000001015,"rot1":25,"rot2":5,"rot3":15,"rot4":-15,"rot5":-25,"rot6":-5,"dil1":0.975,"dil2":1.025,"dil3":0.875,"dil4":1.125,"dil5":1.075,"dil6":0.925,"rots":[25,5,15,-15,-25,-5],"dils":[0.975,1.025,0.875,1.125,1.075,0.925],"loop_number":"NA","everTouched":null},{"id":"test","shape":"parallelogram","outlier_type":2,"choice":1,"outlierPosition":1,"success":true,"majorityOfMostRegularShapes":true,"rt":3168.100000009872,"rot1":-25,"rot2":25,"rot3":15,"rot4":-15,"rot5":5,"rot6":-5,"dil1":0.925,"dil2":1.125,"dil3":1.025,"dil4":0.975,"dil5":1.075,"dil6":0.875,"rots":[-25,25,15,-15,5,-5],"dils":[0.925,1.125,1.025,0.975,1.075,0.875],"loop_number":"NA","everTouched":null},{"id":"test","shape":"isoTrapezoid","outlier_type":3,"choice":0,"outlierPosition":0,"success":true,"majorityOfMostRegularShapes":true,"rt":4340.399999986403,"rot1":-5,"rot2":25,"rot3":5,"rot4":-25,"rot5":-15,"rot6":15,"dil1":1.125,"dil2":0.975,"dil3":1.075,"dil4":0.875,"dil5":1.025,"dil6":0.925,"rots":[-5,25,5,-25,-15,15],"dils":[1.125,0.975,1.075,0.875,1.025,0.925],"loop_number":"NA","everTouched":null},{"id":"test","shape":"rectangle","outlier_type":2,"choice":1,"outlierPosition":1,"success":true,"majorityOfMostRegularShapes":true,"rt":2096.1999999999534,"rot1":25,"rot2":-15,"rot3":5,"rot4":-5,"rot5":-25,"rot6":15,"dil1":1.025,"dil2":0.925,"dil3":1.125,"dil4":0.975,"dil5":1.075,"dil6":0.875,"rots":[25,-15,5,-5,-25,15],"dils":[1.025,0.925,1.125,0.975,1.075,0.875],"loop_number":"NA","everTouched":null},{"id":"test","shape":"losange","outlier_type":0,"choice":3,"outlierPosition":3,"success":true,"majorityOfMostRegularShapes":true,"rt":4753.800000005867,"rot1":-15,"rot2":-5,"rot3":25,"rot4":15,"rot5":-25,"rot6":5,"dil1":1.075,"dil2":0.925,"dil3":1.125,"dil4":0.975,"dil5":1.025,"dil6":0.875,"rots":[-15,-5,25,15,-25,5],"dils":[1.075,0.925,1.125,0.975,1.025,0.875],"loop_number":"NA","everTouched":null},{"id":"test","shape":"square","outlier_type":3,"choice":0,"outlierPosition":0,"success":true,"majorityOfMostRegularShapes":true,"rt":3335.499999986496,"rot1":-25,"rot2":5,"rot3":-5,"rot4":15,"rot5":-15,"rot6":25,"dil1":1.125,"dil2":1.075,"dil3":0.925,"dil4":0.875,"dil5":0.975,"dil6":1.025,"rots":[-25,5,-5,15,-15,25],"dils":[1.125,1.075,0.925,0.875,0.975,1.025],"loop_number":"NA","everTouched":null},{"id":"test","shape":"losange","outlier_type":2,"choice":0,"outlierPosition":0,"success":true,"majorityOfMostRegularShapes":true,"rt":4203.899999993155,"rot1":25,"rot2":-15,"rot3":-5,"rot4":5,"rot5":-25,"rot6":15,"dil1":1.125,"dil2":1.075,"dil3":0.875,"dil4":0.925,"dil5":0.975,"dil6":1.025,"rots":[25,-15,-5,5,-25,15],"dils":[1.125,1.075,0.875,0.925,0.975,1.025],"loop_number":"NA","everTouched":null},{"id":"test","shape":"rightKite","outlier_type":0,"choice":1,"outlierPosition":1,"success":true,"majorityOfMostRegularShapes":true,"rt":19932.099999976344,"rot1":15,"rot2":-25,"rot3":-5,"rot4":-15,"rot5":25,"rot6":5,"dil1":1.075,"dil2":1.125,"dil3":1.025,"dil4":0.875,"dil5":0.975,"dil6":0.925,"rots":[15,-25,-5,-15,25,5],"dils":[1.075,1.125,1.025,0.875,0.975,0.925],"loop_number":"NA","everTouched":null},{"id":"test","shape":"rustedHinge","outlier_type":1,"choice":4,"outlierPosition":4,"success":true,"majorityOfMostRegularShapes":true,"rt":18361.100000009174,"rot1":-15,"rot2":15,"rot3":5,"rot4":-25,"rot5":25,"rot6":-5,"dil1":1.025,"dil2":0.875,"dil3":1.075,"dil4":0.975,"dil5":0.925,"dil6":1.125,"rots":[-15,15,5,-25,25,-5],"dils":[1.025,0.875,1.075,0.975,0.925,1.125],"loop_number":"NA","everTouched":null},{"id":"test","shape":"losange","outlier_type":3,"choice":2,"outlierPosition":2,"success":true,"majorityOfMostRegularShapes":true,"rt":2267.200000002049,"rot1":5,"rot2":15,"rot3":-5,"rot4":-15,"rot5":25,"rot6":-25,"dil1":1.075,"dil2":0.925,"dil3":0.875,"dil4":1.025,"dil5":1.125,"dil6":0.975,"rots":[5,15,-5,-15,25,-25],"dils":[1.075,0.925,0.875,1.025,1.125,0.975],"loop_number":"NA","everTouched":null},{"id":"test","shape":"random","outlier_type":0,"choice":2,"outlierPosition":4,"success":false,"majorityOfMostRegularShapes":true,"rt":6769.399999990128,"rot1":-25,"rot2":15,"rot3":-15,"rot4":5,"rot5":-5,"rot6":25,"dil1":1.075,"dil2":0.925,"dil3":1.025,"dil4":0.975,"dil5":1.125,"dil6":0.875,"rots":[-25,15,-15,5,-5,25],"dils":[1.075,0.925,1.025,0.975,1.125,0.875],"loop_number":"NA","everTouched":null},{"id":"test","shape":"parallelogram","outlier_type":3,"choice":1,"outlierPosition":1,"success":true,"majorityOfMostRegularShapes":true,"rt":3668.999999994412,"rot1":15,"rot2":-25,"rot3":-15,"rot4":-5,"rot5":5,"rot6":25,"dil1":0.975,"dil2":0.925,"dil3":1.075,"dil4":1.125,"dil5":0.875,"dil6":1.025,"rots":[15,-25,-15,-5,5,25],"dils":[0.975,0.925,1.075,1.125,0.875,1.025],"loop_number":"NA","everTouched":null},{"id":"test","shape":"trapezoid","outlier_type":2,"choice":1,"outlierPosition":1,"success":true,"majorityOfMostRegularShapes":true,"rt":10382.500000006985,"rot1":-5,"rot2":5,"rot3":15,"rot4":25,"rot5":-25,"rot6":-15,"dil1":0.925,"dil2":0.875,"dil3":1.075,"dil4":1.025,"dil5":0.975,"dil6":1.125,"rots":[-5,5,15,25,-25,-15],"dils":[0.925,0.875,1.075,1.025,0.975,1.125],"loop_number":"NA","everTouched":null},{"id":"test","shape":"trapezoid","outlier_type":1,"choice":5,"outlierPosition":5,"success":true,"majorityOfMostRegularShapes":true,"rt":4473.500000021886,"rot1":-15,"rot2":-5,"rot3":25,"rot4":15,"rot5":-25,"rot6":5,"dil1":1.075,"dil2":1.125,"dil3":0.925,"dil4":0.875,"dil5":1.025,"dil6":0.975,"rots":[-15,-5,25,15,-25,5],"dils":[1.075,1.125,0.925,0.875,1.025,0.975],"loop_number":"NA","everTouched":null},{"id":"test","shape":"hinge","outlier_type":0,"choice":4,"outlierPosition":1,"success":false,"majorityOfMostRegularShapes":true,"rt":9634.600000019418,"rot1":-5,"rot2":-15,"rot3":-25,"rot4":5,"rot5":15,"rot6":25,"dil1":1.075,"dil2":0.975,"dil3":0.875,"dil4":1.025,"dil5":0.925,"dil6":1.125,"rots":[-5,-15,-25,5,15,25],"dils":[1.075,0.975,0.875,1.025,0.925,1.125],"loop_number":"NA","everTouched":null},{"id":"test","shape":"isoTrapezoid","outlier_type":2,"choice":0,"outlierPosition":0,"success":true,"majorityOfMostRegularShapes":true,"rt":7186.099999991711,"rot1":5,"rot2":-25,"rot3":15,"rot4":-5,"rot5":-15,"rot6":25,"dil1":1.125,"dil2":1.025,"dil3":1.075,"dil4":0.875,"dil5":0.975,"dil6":0.925,"rots":[5,-25,15,-5,-15,25],"dils":[1.125,1.025,1.075,0.875,0.975,0.925],"loop_number":"NA","everTouched":null},{"id":"test","shape":"parallelogram","outlier_type":1,"choice":0,"outlierPosition":0,"success":true,"majorityOfMostRegularShapes":true,"rt":3196.700000000419,"rot1":-5,"rot2":5,"rot3":-25,"rot4":-15,"rot5":15,"rot6":25,"dil1":1.125,"dil2":0.875,"dil3":1.025,"dil4":0.975,"dil5":0.925,"dil6":1.075,"rots":[-5,5,-25,-15,15,25],"dils":[1.125,0.875,1.025,0.975,0.925,1.075],"loop_number":"NA","everTouched":null},{"id":"test","shape":"square","outlier_type":2,"choice":5,"outlierPosition":5,"success":true,"majorityOfMostRegularShapes":true,"rt":1753.7000000011176,"rot1":-25,"rot2":-5,"rot3":25,"rot4":5,"rot5":-15,"rot6":15,"dil1":1.025,"dil2":1.125,"dil3":0.925,"dil4":0.975,"dil5":1.075,"dil6":0.875,"rots":[-25,-5,25,5,-15,15],"dils":[1.025,1.125,0.925,0.975,1.075,0.875],"loop_number":"NA","everTouched":null},{"id":"test","shape":"kite","outlier_type":1,"choice":2,"outlierPosition":2,"success":true,"majorityOfMostRegularShapes":true,"rt":4072.7000000188127,"rot1":-15,"rot2":-5,"rot3":25,"rot4":5,"rot5":-25,"rot6":15,"dil1":0.975,"dil2":1.025,"dil3":0.875,"dil4":1.125,"dil5":0.925,"dil6":1.075,"rots":[-15,-5,25,5,-25,15],"dils":[0.975,1.025,0.875,1.125,0.925,1.075],"loop_number":"NA","everTouched":null},{"id":"test","shape":"rustedHinge","outlier_type":0,"choice":4,"outlierPosition":4,"success":true,"majorityOfMostRegularShapes":true,"rt":7002.000000007683,"rot1":-5,"rot2":-25,"rot3":-15,"rot4":25,"rot5":5,"rot6":15,"dil1":0.925,"dil2":1.125,"dil3":0.875,"dil4":1.075,"dil5":0.975,"dil6":1.025,"rots":[-5,-25,-15,25,5,15],"dils":[0.925,1.125,0.875,1.075,0.975,1.025],"loop_number":"NA","everTouched":null},{"id":"test","shape":"rightKite","outlier_type":1,"choice":4,"outlierPosition":4,"success":true,"majorityOfMostRegularShapes":true,"rt":5434.199999988778,"rot1":25,"rot2":-5,"rot3":5,"rot4":15,"rot5":-15,"rot6":-25,"dil1":1.075,"dil2":0.925,"dil3":0.975,"dil4":1.025,"dil5":0.875,"dil6":1.125,"rots":[25,-5,5,15,-15,-25],"dils":[1.075,0.925,0.975,1.025,0.875,1.125],"loop_number":"NA","everTouched":null},{"id":"test","shape":"parallelogram","outlier_type":0,"choice":1,"outlierPosition":1,"success":true,"majorityOfMostRegularShapes":true,"rt":5194.599999987986,"rot1":5,"rot2":-25,"rot3":15,"rot4":-15,"rot5":25,"rot6":-5,"dil1":1.075,"dil2":0.925,"dil3":1.025,"dil4":0.975,"dil5":1.125,"dil6":0.875,"rots":[5,-25,15,-15,25,-5],"dils":[1.075,0.925,1.025,0.975,1.125,0.875],"loop_number":"NA","everTouched":null},{"id":"test","shape":"rustedHinge","outlier_type":3,"choice":0,"outlierPosition":0,"success":true,"majorityOfMostRegularShapes":true,"rt":2652.0000000018626,"rot1":5,"rot2":15,"rot3":-25,"rot4":-5,"rot5":-15,"rot6":25,"dil1":0.975,"dil2":1.025,"dil3":0.925,"dil4":0.875,"dil5":1.125,"dil6":1.075,"rots":[5,15,-25,-5,-15,25],"dils":[0.975,1.025,0.925,0.875,1.125,1.075],"loop_number":"NA","everTouched":null},{"id":"test","shape":"random","outlier_type":2,"choice":2,"outlierPosition":4,"success":false,"majorityOfMostRegularShapes":true,"rt":3633.9999999909196,"rot1":-25,"rot2":-15,"rot3":25,"rot4":5,"rot5":-5,"rot6":15,"dil1":1.125,"dil2":1.075,"dil3":0.925,"dil4":0.975,"dil5":0.875,"dil6":1.025,"rots":[-25,-15,25,5,-5,15],"dils":[1.125,1.075,0.925,0.975,0.875,1.025],"loop_number":"NA","everTouched":null},{"id":"test","shape":"square","outlier_type":0,"choice":1,"outlierPosition":1,"success":true,"majorityOfMostRegularShapes":true,"rt":3318.599999998696,"rot1":15,"rot2":-25,"rot3":25,"rot4":-15,"rot5":-5,"rot6":5,"dil1":1.025,"dil2":1.075,"dil3":0.925,"dil4":0.875,"dil5":1.125,"dil6":0.975,"rots":[15,-25,25,-15,-5,5],"dils":[1.025,1.075,0.925,0.875,1.125,0.975],"loop_number":"NA","everTouched":null},{"id":"test","shape":"rectangle","outlier_type":1,"choice":3,"outlierPosition":3,"success":true,"majorityOfMostRegularShapes":true,"rt":2845.8000000100583,"rot1":15,"rot2":-5,"rot3":-25,"rot4":5,"rot5":-15,"rot6":25,"dil1":0.975,"dil2":1.025,"dil3":1.125,"dil4":1.075,"dil5":0.875,"dil6":0.925,"rots":[15,-5,-25,5,-15,25],"dils":[0.975,1.025,1.125,1.075,0.875,0.925],"loop_number":"NA","everTouched":null},{"id":"test","shape":"kite","outlier_type":2,"choice":4,"outlierPosition":4,"success":true,"majorityOfMostRegularShapes":true,"rt":1878.3999999868684,"rot1":5,"rot2":-5,"rot3":25,"rot4":15,"rot5":-15,"rot6":-25,"dil1":1.075,"dil2":0.925,"dil3":0.875,"dil4":1.025,"dil5":0.975,"dil6":1.125,"rots":[5,-5,25,15,-15,-25],"dils":[1.075,0.925,0.875,1.025,0.975,1.125],"loop_number":"NA","everTouched":null},{"id":"test","shape":"square","outlier_type":1,"choice":3,"outlierPosition":3,"success":true,"majorityOfMostRegularShapes":true,"rt":1369.4000000250526,"rot1":25,"rot2":-15,"rot3":-5,"rot4":-25,"rot5":15,"rot6":5,"dil1":0.925,"dil2":1.125,"dil3":1.025,"dil4":0.975,"dil5":1.075,"dil6":0.875,"rots":[25,-15,-5,-25,15,5],"dils":[0.925,1.125,1.025,0.975,1.075,0.875],"loop_number":"NA","everTouched":null},{"id":"test","shape":"rectangle","outlier_type":0,"choice":2,"outlierPosition":2,"success":true,"majorityOfMostRegularShapes":true,"rt":1676.8000000156462,"rot1":-5,"rot2":-15,"rot3":5,"rot4":25,"rot5":-25,"rot6":15,"dil1":1.075,"dil2":0.875,"dil3":0.925,"dil4":1.125,"dil5":1.025,"dil6":0.975,"rots":[-5,-15,5,25,-25,15],"dils":[1.075,0.875,0.925,1.125,1.025,0.975],"loop_number":"NA","everTouched":null},{"id":"test","shape":"isoTrapezoid","outlier_type":1,"choice":2,"outlierPosition":2,"success":true,"majorityOfMostRegularShapes":true,"rt":3952.3000000044703,"rot1":-15,"rot2":25,"rot3":5,"rot4":15,"rot5":-5,"rot6":-25,"dil1":1.025,"dil2":1.125,"dil3":0.975,"dil4":0.925,"dil5":1.075,"dil6":0.875,"rots":[-15,25,5,15,-5,-25],"dils":[1.025,1.125,0.975,0.925,1.075,0.875],"loop_number":"NA","everTouched":null},{"id":"test","shape":"hinge","outlier_type":3,"choice":3,"outlierPosition":4,"success":false,"majorityOfMostRegularShapes":true,"rt":7709.000000002561,"rot1":-5,"rot2":-25,"rot3":-15,"rot4":25,"rot5":15,"rot6":5,"dil1":1.025,"dil2":1.075,"dil3":1.125,"dil4":0.875,"dil5":0.925,"dil6":0.975,"rots":[-5,-25,-15,25,15,5],"dils":[1.025,1.075,1.125,0.875,0.925,0.975],"loop_number":"NA","everTouched":null},{"id":"test","shape":"random","outlier_type":1,"choice":2,"outlierPosition":2,"success":true,"majorityOfMostRegularShapes":true,"rt":13324.000000022352,"rot1":25,"rot2":15,"rot3":-5,"rot4":5,"rot5":-25,"rot6":-15,"dil1":1.075,"dil2":1.125,"dil3":1.025,"dil4":0.925,"dil5":0.975,"dil6":0.875,"rots":[25,15,-5,5,-25,-15],"dils":[1.075,1.125,1.025,0.925,0.975,0.875],"loop_number":"NA","everTouched":null},{"id":"test","shape":"trapezoid","outlier_type":3,"choice":1,"outlierPosition":3,"success":false,"majorityOfMostRegularShapes":true,"rt":4223.100000002887,"rot1":15,"rot2":-25,"rot3":-15,"rot4":-5,"rot5":5,"rot6":25,"dil1":0.875,"dil2":0.975,"dil3":0.925,"dil4":1.125,"dil5":1.025,"dil6":1.075,"rots":[15,-25,-15,-5,5,25],"dils":[0.875,0.975,0.925,1.125,1.025,1.075],"loop_number":"NA","everTouched":null},{"id":"test","shape":"rustedHinge","outlier_type":2,"choice":4,"outlierPosition":3,"success":false,"majorityOfMostRegularShapes":true,"rt":9257.600000011735,"rot1":15,"rot2":-5,"rot3":-25,"rot4":-15,"rot5":25,"rot6":5,"dil1":0.875,"dil2":1.125,"dil3":0.975,"dil4":1.075,"dil5":1.025,"dil6":0.925,"rots":[15,-5,-25,-15,25,5],"dils":[0.875,1.125,0.975,1.075,1.025,0.925],"loop_number":"NA","everTouched":null},{"id":"test","shape":"rightKite","outlier_type":3,"choice":4,"outlierPosition":5,"success":false,"majorityOfMostRegularShapes":true,"rt":4154.499999975087,"rot1":-5,"rot2":-25,"rot3":5,"rot4":25,"rot5":15,"rot6":-15,"dil1":0.875,"dil2":1.125,"dil3":0.925,"dil4":1.025,"dil5":1.075,"dil6":0.975,"rots":[-5,-25,5,25,15,-15],"dils":[0.875,1.125,0.925,1.025,1.075,0.975],"loop_number":"NA","everTouched":null},{"id":"test","shape":"losange","outlier_type":1,"choice":1,"outlierPosition":1,"success":true,"majorityOfMostRegularShapes":true,"rt":5690.000000002328,"rot1":5,"rot2":-5,"rot3":-25,"rot4":-15,"rot5":15,"rot6":25,"dil1":0.875,"dil2":1.025,"dil3":1.075,"dil4":0.975,"dil5":0.925,"dil6":1.125,"rots":[5,-5,-25,-15,15,25],"dils":[0.875,1.025,1.075,0.975,0.925,1.125],"loop_number":"NA","everTouched":null},{"id":"test","shape":"rightKite","outlier_type":2,"choice":2,"outlierPosition":2,"success":true,"majorityOfMostRegularShapes":true,"rt":3335.2000000013504,"rot1":15,"rot2":-5,"rot3":25,"rot4":-25,"rot5":5,"rot6":-15,"dil1":1.025,"dil2":1.125,"dil3":0.925,"dil4":0.875,"dil5":0.975,"dil6":1.075,"rots":[15,-5,25,-25,5,-15],"dils":[1.025,1.125,0.925,0.875,0.975,1.075],"loop_number":"NA","everTouched":null},{"id":"test","shape":"rectangle","outlier_type":3,"choice":4,"outlierPosition":4,"success":true,"majorityOfMostRegularShapes":true,"rt":2320.099999982631,"rot1":-25,"rot2":-5,"rot3":5,"rot4":15,"rot5":25,"rot6":-15,"dil1":1.125,"dil2":1.025,"dil3":1.075,"dil4":0.925,"dil5":0.975,"dil6":0.875,"rots":[-25,-5,5,15,25,-15],"dils":[1.125,1.025,1.075,0.925,0.975,0.875],"loop_number":"NA","everTouched":null},{"id":"test","shape":"trapezoid","outlier_type":0,"choice":5,"outlierPosition":5,"success":true,"majorityOfMostRegularShapes":true,"rt":4849.999999976717,"rot1":15,"rot2":-25,"rot3":25,"rot4":-5,"rot5":5,"rot6":-15,"dil1":0.925,"dil2":1.075,"dil3":1.025,"dil4":1.125,"dil5":0.975,"dil6":0.875,"rots":[15,-25,25,-5,5,-15],"dils":[0.925,1.075,1.025,1.125,0.975,0.875],"loop_number":"NA","everTouched":null},{"id":"test","shape":"hinge","outlier_type":1,"choice":5,"outlierPosition":5,"success":true,"majorityOfMostRegularShapes":true,"rt":4618.1999999971595,"rot1":-25,"rot2":15,"rot3":25,"rot4":-15,"rot5":-5,"rot6":5,"dil1":0.925,"dil2":0.975,"dil3":1.075,"dil4":0.875,"dil5":1.125,"dil6":1.025,"rots":[-25,15,25,-15,-5,5],"dils":[0.925,0.975,1.075,0.875,1.125,1.025],"loop_number":"NA","everTouched":null},{"id":"test","shape":"kite","outlier_type":3,"choice":3,"outlierPosition":3,"success":true,"majorityOfMostRegularShapes":true,"rt":6229.400000011083,"rot1":15,"rot2":-5,"rot3":25,"rot4":-25,"rot5":5,"rot6":-15,"dil1":1.125,"dil2":0.975,"dil3":0.875,"dil4":1.025,"dil5":1.075,"dil6":0.925,"rots":[15,-5,25,-25,5,-15],"dils":[1.125,0.975,0.875,1.025,1.075,0.925],"loop_number":"NA","everTouched":null}],"desiredDistance":0.3,"trial_type":"oddball-grid","trial_index":3,"time_elapsed":469279,"internal_node_id":"0.0-3.0","ID":"mvaz7zj6sc"},{"success":true,"trial_type":"fullscreen","trial_index":4,"time_elapsed":477022,"internal_node_id":"0.0-4.0","ID":"mvaz7zj6sc"}]