[{"success":true,"trial_type":"fullscreen","trial_index":0,"time_elapsed":80327,"internal_node_id":"0.0-0.0","ID":"p069416k1y"},{"results":[{"id":"train-images","shape":"2","outlier_type":"NA","choice":0,"outlierPosition":0,"success":true,"majorityOfMostRegularShapes":"NA","rt":1116.4999999746215,"rot1":25,"rot2":5,"rot3":-25,"rot4":-5,"rot5":15,"rot6":-15,"dil1":1.025,"dil2":0.975,"dil3":0.875,"dil4":1.075,"dil5":1.125,"dil6":0.925,"rots":[25,5,-25,-5,15,-15],"dils":[1.025,0.975,0.875,1.075,1.125,0.925],"loop_number":1,"everTouched":null},{"id":"train-images","shape":"8","outlier_type":"NA","choice":2,"outlierPosition":2,"success":true,"majorityOfMostRegularShapes":"NA","rt":1759.9000000045635,"rot1":5,"rot2":15,"rot3":25,"rot4":-15,"rot5":-25,"rot6":-5,"dil1":0.975,"dil2":1.075,"dil3":1.025,"dil4":1.125,"dil5":0.875,"dil6":0.925,"rots":[5,15,25,-15,-25,-5],"dils":[0.975,1.075,1.025,1.125,0.875,0.925],"loop_number":1,"everTouched":null},{"id":"train-images","shape":"10","outlier_type":"NA","choice":2,"outlierPosition":2,"success":true,"majorityOfMostRegularShapes":"NA","rt":1403.9999999804422,"rot1":-25,"rot2":-15,"rot3":15,"rot4":25,"rot5":5,"rot6":-5,"dil1":0.925,"dil2":1.025,"dil3":0.975,"dil4":0.875,"dil5":1.125,"dil6":1.075,"rots":[-25,-15,15,25,5,-5],"dils":[0.925,1.025,0.975,0.875,1.125,1.075],"loop_number":1,"everTouched":null},{"id":"train-images","shape":"1","outlier_type":"NA","choice":1,"outlierPosition":1,"success":true,"majorityOfMostRegularShapes":"NA","rt":894.1000000049826,"rot1":-15,"rot2":15,"rot3":-25,"rot4":5,"rot5":25,"rot6":-5,"dil1":0.875,"dil2":0.975,"dil3":1.075,"dil4":1.125,"dil5":1.025,"dil6":0.925,"rots":[-15,15,-25,5,25,-5],"dils":[0.875,0.975,1.075,1.125,1.025,0.925],"loop_number":1,"everTouched":null},{"id":"train-images","shape":"3","outlier_type":"NA","choice":0,"outlierPosition":0,"success":true,"majorityOfMostRegularShapes":"NA","rt":1825.1999999920372,"rot1":5,"rot2":25,"rot3":15,"rot4":-5,"rot5":-25,"rot6":-15,"dil1":1.125,"dil2":0.975,"dil3":1.025,"dil4":0.875,"dil5":1.075,"dil6":0.925,"rots":[5,25,15,-5,-25,-15],"dils":[1.125,0.975,1.025,0.875,1.075,0.925],"loop_number":1,"everTouched":null},{"id":"train-images","shape":"9","outlier_type":"NA","choice":2,"outlierPosition":2,"success":true,"majorityOfMostRegularShapes":"NA","rt":967.5999999744818,"rot1":-15,"rot2":25,"rot3":15,"rot4":-25,"rot5":5,"rot6":-5,"dil1":1.025,"dil2":1.075,"dil3":0.925,"dil4":0.875,"dil5":1.125,"dil6":0.975,"rots":[-15,25,15,-25,5,-5],"dils":[1.025,1.075,0.925,0.875,1.125,0.975],"loop_number":1,"everTouched":null},{"id":"train-images","shape":"6","outlier_type":"NA","choice":3,"outlierPosition":3,"success":true,"majorityOfMostRegularShapes":"NA","rt":1829.8000000067987,"rot1":25,"rot2":-15,"rot3":5,"rot4":15,"rot5":-25,"rot6":-5,"dil1":0.925,"dil2":0.875,"dil3":1.075,"dil4":1.125,"dil5":1.025,"dil6":0.975,"rots":[25,-15,5,15,-25,-5],"dils":[0.925,0.875,1.075,1.125,1.025,0.975],"loop_number":1,"everTouched":null},{"id":"train-images","shape":"4","outlier_type":"NA","choice":4,"outlierPosition":4,"success":true,"majorityOfMostRegularShapes":"NA","rt":1339.399999997113,"rot1":-25,"rot2":-15,"rot3":15,"rot4":25,"rot5":5,"rot6":-5,"dil1":0.975,"dil2":1.025,"dil3":1.125,"dil4":1.075,"dil5":0.875,"dil6":0.925,"rots":[-25,-15,15,25,5,-5],"dils":[0.975,1.025,1.125,1.075,0.875,0.925],"loop_number":1,"everTouched":null},{"id":"train-images","shape":"5","outlier_type":"NA","choice":1,"outlierPosition":1,"success":true,"majorityOfMostRegularShapes":"NA","rt":859.7999999765307,"rot1":25,"rot2":15,"rot3":-5,"rot4":-25,"rot5":5,"rot6":-15,"dil1":1.075,"dil2":0.975,"dil3":0.875,"dil4":1.025,"dil5":1.125,"dil6":0.925,"rots":[25,15,-5,-25,5,-15],"dils":[1.075,0.975,0.875,1.025,1.125,0.925],"loop_number":1,"everTouched":null},{"id":"train-images","shape":"7","outlier_type":"NA","choice":5,"outlierPosition":5,"success":true,"majorityOfMostRegularShapes":"NA","rt":1311.7999999958556,"rot1":5,"rot2":25,"rot3":-15,"rot4":-5,"rot5":15,"rot6":-25,"dil1":1.075,"dil2":0.925,"dil3":0.875,"dil4":1.125,"dil5":0.975,"dil6":1.025,"rots":[5,25,-15,-5,15,-25],"dils":[1.075,0.925,0.875,1.125,0.975,1.025],"loop_number":1,"everTouched":null}],"trial_type":"oddball-grid-image","trial_index":1,"time_elapsed":113095,"internal_node_id":"0.0-1.0","ID":"p069416k1y"},{"results":[{"id":"train","shape":null,"outlier_type":null,"choice":4,"outlierPosition":4,"success":true,"majorityOfMostRegularShapes":null,"rt":1648.9999999757856,"rot1":-5,"rot2":-15,"rot3":5,"rot4":25,"rot5":-25,"rot6":15,"dil1":0.975,"dil2":0.925,"dil3":0.875,"dil4":1.125,"dil5":1.025,"dil6":1.075,"rots":[-5,-15,5,25,-25,15],"dils":[0.975,0.925,0.875,1.125,1.025,1.075],"loop_number":1,"everTouched":null},{"id":"train","shape":null,"outlier_type":null,"choice":4,"outlierPosition":4,"success":true,"majorityOfMostRegularShapes":null,"rt":1351.9000000087544,"rot1":15,"rot2":5,"rot3":-25,"rot4":-15,"rot5":-5,"rot6":25,"dil1":1.075,"dil2":0.925,"dil3":0.875,"dil4":1.025,"dil5":1.125,"dil6":0.975,"rots":[15,5,-25,-15,-5,25],"dils":[1.075,0.925,0.875,1.025,1.125,0.975],"loop_number":1,"everTouched":null},{"id":"train","shape":null,"outlier_type":null,"choice":1,"outlierPosition":1,"success":true,"majorityOfMostRegularShapes":null,"rt":978.3999999926891,"rot1":5,"rot2":-5,"rot3":-25,"rot4":15,"rot5":25,"rot6":-15,"dil1":1.125,"dil2":0.875,"dil3":0.975,"dil4":0.925,"dil5":1.025,"dil6":1.075,"rots":[5,-5,-25,15,25,-15],"dils":[1.125,0.875,0.975,0.925,1.025,1.075],"loop_number":1,"everTouched":null},{"id":"train","shape":null,"outlier_type":null,"choice":3,"outlierPosition":3,"success":true,"majorityOfMostRegularShapes":null,"rt":999.7999999905005,"rot1":-5,"rot2":-15,"rot3":25,"rot4":-25,"rot5":5,"rot6":15,"dil1":0.875,"dil2":1.125,"dil3":0.975,"dil4":1.075,"dil5":1.025,"dil6":0.925,"rots":[-5,-15,25,-25,5,15],"dils":[0.875,1.125,0.975,1.075,1.025,0.925],"loop_number":1,"everTouched":null},{"id":"train","shape":null,"outlier_type":null,"choice":0,"outlierPosition":0,"success":true,"majorityOfMostRegularShapes":null,"rt":1128.100000001723,"rot1":25,"rot2":-5,"rot3":-25,"rot4":5,"rot5":15,"rot6":-15,"dil1":1.075,"dil2":1.125,"dil3":0.925,"dil4":0.975,"dil5":0.875,"dil6":1.025,"rots":[25,-5,-25,5,15,-15],"dils":[1.075,1.125,0.925,0.975,0.875,1.025],"loop_number":1,"everTouched":null},{"id":"train","shape":null,"outlier_type":null,"choice":0,"outlierPosition":0,"success":true,"majorityOfMostRegularShapes":null,"rt":1285.8000000123866,"rot1":15,"rot2":-5,"rot3":25,"rot4":5,"rot5":-15,"rot6":-25,"dil1":0.975,"dil2":0.875,"dil3":0.925,"dil4":1.125,"dil5":1.075,"dil6":1.025,"rots":[15,-5,25,5,-15,-25],"dils":[0.975,0.875,0.925,1.125,1.075,1.025],"loop_number":1,"everTouched":null}],"desiredDistance":0.3,"trial_type":"oddball-grid-easy","trial_index":2,"time_elapsed":129087,"internal_node_id":"0.0-2.0","ID":"p069416k1y"},{"results":[{"id":"test","shape":"losange","outlier_type":0,"choice":0,"outlierPosition":0,"success":true,"majorityOfMostRegularShapes":true,"rt":4140.299999999115,"rot1":-15,"rot2":-25,"rot3":15,"rot4":5,"rot5":-5,"rot6":25,"dil1":0.875,"dil2":1.125,"dil3":1.025,"dil4":0.975,"dil5":0.925,"dil6":1.075,"rots":[-15,-25,15,5,-5,25],"dils":[0.875,1.125,1.025,0.975,0.925,1.075],"loop_number":"NA","everTouched":null},{"id":"test","shape":"rectangle","outlier_type":2,"choice":1,"outlierPosition":1,"success":true,"majorityOfMostRegularShapes":true,"rt":1312.7000000094995,"rot1":-5,"rot2":25,"rot3":-15,"rot4":5,"rot5":-25,"rot6":15,"dil1":0.925,"dil2":1.025,"dil3":1.075,"dil4":0.875,"dil5":1.125,"dil6":0.975,"rots":[-5,25,-15,5,-25,15],"dils":[0.925,1.025,1.075,0.875,1.125,0.975],"loop_number":"NA","everTouched":null},{"id":"test","shape":"losange","outlier_type":3,"choice":4,"outlierPosition":4,"success":true,"majorityOfMostRegularShapes":true,"rt":1411.500000016531,"rot1":-25,"rot2":25,"rot3":5,"rot4":-5,"rot5":15,"rot6":-15,"dil1":0.875,"dil2":1.025,"dil3":0.925,"dil4":1.125,"dil5":0.975,"dil6":1.075,"rots":[-25,25,5,-5,15,-15],"dils":[0.875,1.025,0.925,1.125,0.975,1.075],"loop_number":"NA","everTouched":null},{"id":"test","shape":"hinge","outlier_type":1,"choice":2,"outlierPosition":2,"success":true,"majorityOfMostRegularShapes":true,"rt":4543.199999985518,"rot1":-15,"rot2":-25,"rot3":25,"rot4":15,"rot5":5,"rot6":-5,"dil1":0.975,"dil2":1.025,"dil3":1.075,"dil4":0.925,"dil5":1.125,"dil6":0.875,"rots":[-15,-25,25,15,5,-5],"dils":[0.975,1.025,1.075,0.925,1.125,0.875],"loop_number":"NA","everTouched":null},{"id":"test","shape":"isoTrapezoid","outlier_type":3,"choice":3,"outlierPosition":3,"success":true,"majorityOfMostRegularShapes":true,"rt":3961.8999999947846,"rot1":-25,"rot2":-15,"rot3":15,"rot4":5,"rot5":25,"rot6":-5,"dil1":1.025,"dil2":1.075,"dil3":0.925,"dil4":0.875,"dil5":0.975,"dil6":1.125,"rots":[-25,-15,15,5,25,-5],"dils":[1.025,1.075,0.925,0.875,0.975,1.125],"loop_number":"NA","everTouched":null},{"id":"test","shape":"rightKite","outlier_type":1,"choice":0,"outlierPosition":0,"success":true,"majorityOfMostRegularShapes":true,"rt":8172.000000020489,"rot1":-15,"rot2":25,"rot3":15,"rot4":-25,"rot5":5,"rot6":-5,"dil1":1.125,"dil2":0.875,"dil3":1.075,"dil4":1.025,"dil5":0.925,"dil6":0.975,"rots":[-15,25,15,-25,5,-5],"dils":[1.125,0.875,1.075,1.025,0.925,0.975],"loop_number":"NA","everTouched":null},{"id":"test","shape":"rustedHinge","outlier_type":3,"choice":2,"outlierPosition":2,"success":true,"majorityOfMostRegularShapes":true,"rt":4929.60000000312,"rot1":25,"rot2":5,"rot3":15,"rot4":-25,"rot5":-5,"rot6":-15,"dil1":1.075,"dil2":0.975,"dil3":1.125,"dil4":1.025,"dil5":0.925,"dil6":0.875,"rots":[25,5,15,-25,-5,-15],"dils":[1.075,0.975,1.125,1.025,0.925,0.875],"loop_number":"NA","everTouched":null},{"id":"test","shape":"random","outlier_type":3,"choice":4,"outlierPosition":4,"success":true,"majorityOfMostRegularShapes":true,"rt":5223.899999982677,"rot1":5,"rot2":15,"rot3":25,"rot4":-25,"rot5":-15,"rot6":-5,"dil1":0.875,"dil2":0.925,"dil3":0.975,"dil4":1.025,"dil5":1.125,"dil6":1.075,"rots":[5,15,25,-25,-15,-5],"dils":[0.875,0.925,0.975,1.025,1.125,1.075],"loop_number":"NA","everTouched":null},{"id":"test","shape":"kite","outlier_type":2,"choice":5,"outlierPosition":5,"success":true,"majorityOfMostRegularShapes":true,"rt":5945.39999999688,"rot1":15,"rot2":5,"rot3":-5,"rot4":-25,"rot5":-15,"rot6":25,"dil1":1.075,"dil2":0.925,"dil3":0.875,"dil4":1.125,"dil5":1.025,"dil6":0.975,"rots":[15,5,-5,-25,-15,25],"dils":[1.075,0.925,0.875,1.125,1.025,0.975],"loop_number":"NA","everTouched":null},{"id":"test","shape":"rustedHinge","outlier_type":0,"choice":0,"outlierPosition":1,"success":false,"majorityOfMostRegularShapes":true,"rt":5264.7999999753665,"rot1":25,"rot2":-25,"rot3":5,"rot4":15,"rot5":-5,"rot6":-15,"dil1":0.875,"dil2":0.975,"dil3":1.125,"dil4":0.925,"dil5":1.025,"dil6":1.075,"rots":[25,-25,5,15,-5,-15],"dils":[0.875,0.975,1.125,0.925,1.025,1.075],"loop_number":"NA","everTouched":null},{"id":"test","shape":"random","outlier_type":2,"choice":1,"outlierPosition":1,"success":true,"majorityOfMostRegularShapes":true,"rt":9225.700000009965,"rot1":-5,"rot2":15,"rot3":-15,"rot4":5,"rot5":-25,"rot6":25,"dil1":1.025,"dil2":0.925,"dil3":0.975,"dil4":1.075,"dil5":0.875,"dil6":1.125,"rots":[-5,15,-15,5,-25,25],"dils":[1.025,0.925,0.975,1.075,0.875,1.125],"loop_number":"NA","everTouched":null},{"id":"test","shape":"parallelogram","outlier_type":1,"choice":5,"outlierPosition":5,"success":true,"majorityOfMostRegularShapes":true,"rt":2291.800000006333,"rot1":-25,"rot2":25,"rot3":15,"rot4":-15,"rot5":5,"rot6":-5,"dil1":0.925,"dil2":1.075,"dil3":0.975,"dil4":1.125,"dil5":1.025,"dil6":0.875,"rots":[-25,25,15,-15,5,-5],"dils":[0.925,1.075,0.975,1.125,1.025,0.875],"loop_number":"NA","everTouched":null},{"id":"test","shape":"square","outlier_type":0,"choice":3,"outlierPosition":3,"success":true,"majorityOfMostRegularShapes":true,"rt":2399.299999990035,"rot1":-5,"rot2":-15,"rot3":5,"rot4":15,"rot5":-25,"rot6":25,"dil1":0.925,"dil2":0.975,"dil3":0.875,"dil4":1.075,"dil5":1.125,"dil6":1.025,"rots":[-5,-15,5,15,-25,25],"dils":[0.925,0.975,0.875,1.075,1.125,1.025],"loop_number":"NA","everTouched":null},{"id":"test","shape":"hinge","outlier_type":2,"choice":2,"outlierPosition":2,"success":true,"majorityOfMostRegularShapes":true,"rt":8073.499999998603,"rot1":25,"rot2":-15,"rot3":-25,"rot4":5,"rot5":15,"rot6":-5,"dil1":0.875,"dil2":0.925,"dil3":1.125,"dil4":1.025,"dil5":0.975,"dil6":1.075,"rots":[25,-15,-25,5,15,-5],"dils":[0.875,0.925,1.125,1.025,0.975,1.075],"loop_number":"NA","everTouched":null},{"id":"test","shape":"rustedHinge","outlier_type":1,"choice":3,"outlierPosition":3,"success":true,"majorityOfMostRegularShapes":true,"rt":10645.199999999022,"rot1":25,"rot2":-15,"rot3":-25,"rot4":15,"rot5":-5,"rot6":5,"dil1":0.875,"dil2":1.125,"dil3":0.925,"dil4":1.075,"dil5":0.975,"dil6":1.025,"rots":[25,-15,-25,15,-5,5],"dils":[0.875,1.125,0.925,1.075,0.975,1.025],"loop_number":"NA","everTouched":null},{"id":"test","shape":"rightKite","outlier_type":2,"choice":0,"outlierPosition":0,"success":true,"majorityOfMostRegularShapes":true,"rt":10203.900000022259,"rot1":-25,"rot2":5,"rot3":25,"rot4":-15,"rot5":15,"rot6":-5,"dil1":0.875,"dil2":1.075,"dil3":1.025,"dil4":1.125,"dil5":0.925,"dil6":0.975,"rots":[-25,5,25,-15,15,-5],"dils":[0.875,1.075,1.025,1.125,0.925,0.975],"loop_number":"NA","everTouched":null},{"id":"test","shape":"isoTrapezoid","outlier_type":0,"choice":3,"outlierPosition":3,"success":true,"majorityOfMostRegularShapes":true,"rt":2689.8999999975786,"rot1":5,"rot2":-5,"rot3":-25,"rot4":25,"rot5":15,"rot6":-15,"dil1":1.125,"dil2":1.075,"dil3":1.025,"dil4":0.975,"dil5":0.925,"dil6":0.875,"rots":[5,-5,-25,25,15,-15],"dils":[1.125,1.075,1.025,0.975,0.925,0.875],"loop_number":"NA","everTouched":null},{"id":"test","shape":"rectangle","outlier_type":3,"choice":5,"outlierPosition":5,"success":true,"majorityOfMostRegularShapes":true,"rt":2523.79999999539,"rot1":5,"rot2":-5,"rot3":25,"rot4":15,"rot5":-25,"rot6":-15,"dil1":1.025,"dil2":0.925,"dil3":0.875,"dil4":0.975,"dil5":1.125,"dil6":1.075,"rots":[5,-5,25,15,-25,-15],"dils":[1.025,0.925,0.875,0.975,1.125,1.075],"loop_number":"NA","everTouched":null},{"id":"test","shape":"trapezoid","outlier_type":1,"choice":0,"outlierPosition":0,"success":true,"majorityOfMostRegularShapes":true,"rt":5080.199999996694,"rot1":-25,"rot2":-15,"rot3":-5,"rot4":25,"rot5":15,"rot6":5,"dil1":0.975,"dil2":1.025,"dil3":0.925,"dil4":0.875,"dil5":1.125,"dil6":1.075,"rots":[-25,-15,-5,25,15,5],"dils":[0.975,1.025,0.925,0.875,1.125,1.075],"loop_number":"NA","everTouched":null},{"id":"test","shape":"square","outlier_type":3,"choice":5,"outlierPosition":5,"success":true,"majorityOfMostRegularShapes":true,"rt":1533.2000000053085,"rot1":25,"rot2":-5,"rot3":-25,"rot4":15,"rot5":5,"rot6":-15,"dil1":0.925,"dil2":1.125,"dil3":0.875,"dil4":1.025,"dil5":1.075,"dil6":0.975,"rots":[25,-5,-25,15,5,-15],"dils":[0.925,1.125,0.875,1.025,1.075,0.975],"loop_number":"NA","everTouched":null},{"id":"test","shape":"random","outlier_type":0,"choice":4,"outlierPosition":4,"success":true,"majorityOfMostRegularShapes":true,"rt":5866.3999999989755,"rot1":5,"rot2":-5,"rot3":-25,"rot4":15,"rot5":25,"rot6":-15,"dil1":1.075,"dil2":0.925,"dil3":1.025,"dil4":0.875,"dil5":0.975,"dil6":1.125,"rots":[5,-5,-25,15,25,-15],"dils":[1.075,0.925,1.025,0.875,0.975,1.125],"loop_number":"NA","everTouched":null},{"id":"test","shape":"losange","outlier_type":2,"choice":3,"outlierPosition":3,"success":true,"majorityOfMostRegularShapes":true,"rt":2419.6999999985565,"rot1":-15,"rot2":15,"rot3":25,"rot4":-25,"rot5":-5,"rot6":5,"dil1":1.025,"dil2":0.925,"dil3":0.875,"dil4":1.075,"dil5":0.975,"dil6":1.125,"rots":[-15,15,25,-25,-5,5],"dils":[1.025,0.925,0.875,1.075,0.975,1.125],"loop_number":"NA","everTouched":null},{"id":"test","shape":"rightKite","outlier_type":3,"choice":1,"outlierPosition":0,"success":false,"majorityOfMostRegularShapes":true,"rt":3482.000000018161,"rot1":5,"rot2":25,"rot3":-15,"rot4":15,"rot5":-25,"rot6":-5,"dil1":0.975,"dil2":0.925,"dil3":1.025,"dil4":1.075,"dil5":0.875,"dil6":1.125,"rots":[5,25,-15,15,-25,-5],"dils":[0.975,0.925,1.025,1.075,0.875,1.125],"loop_number":"NA","everTouched":null},{"id":"test","shape":"isoTrapezoid","outlier_type":1,"choice":2,"outlierPosition":2,"success":true,"majorityOfMostRegularShapes":true,"rt":2447.2999999998137,"rot1":25,"rot2":-25,"rot3":5,"rot4":-15,"rot5":15,"rot6":-5,"dil1":0.975,"dil2":1.125,"dil3":0.875,"dil4":0.925,"dil5":1.025,"dil6":1.075,"rots":[25,-25,5,-15,15,-5],"dils":[0.975,1.125,0.875,0.925,1.025,1.075],"loop_number":"NA","everTouched":null},{"id":"test","shape":"parallelogram","outlier_type":3,"choice":5,"outlierPosition":5,"success":true,"majorityOfMostRegularShapes":true,"rt":1993.3000000019092,"rot1":-15,"rot2":-5,"rot3":5,"rot4":25,"rot5":-25,"rot6":15,"dil1":0.925,"dil2":1.075,"dil3":0.875,"dil4":1.025,"dil5":1.125,"dil6":0.975,"rots":[-15,-5,5,25,-25,15],"dils":[0.925,1.075,0.875,1.025,1.125,0.975],"loop_number":"NA","everTouched":null},{"id":"test","shape":"rectangle","outlier_type":1,"choice":3,"outlierPosition":3,"success":true,"majorityOfMostRegularShapes":true,"rt":2022.1000000019558,"rot1":-5,"rot2":-15,"rot3":-25,"rot4":5,"rot5":15,"rot6":25,"dil1":1.025,"dil2":1.075,"dil3":0.875,"dil4":0.975,"dil5":0.925,"dil6":1.125,"rots":[-5,-15,-25,5,15,25],"dils":[1.025,1.075,0.875,0.975,0.925,1.125],"loop_number":"NA","everTouched":null},{"id":"test","shape":"kite","outlier_type":0,"choice":3,"outlierPosition":3,"success":true,"majorityOfMostRegularShapes":true,"rt":4975.500000000466,"rot1":15,"rot2":-25,"rot3":25,"rot4":-5,"rot5":-15,"rot6":5,"dil1":0.975,"dil2":1.075,"dil3":0.925,"dil4":1.025,"dil5":1.125,"dil6":0.875,"rots":[15,-25,25,-5,-15,5],"dils":[0.975,1.075,0.925,1.025,1.125,0.875],"loop_number":"NA","everTouched":null},{"id":"test","shape":"isoTrapezoid","outlier_type":2,"choice":1,"outlierPosition":1,"success":true,"majorityOfMostRegularShapes":true,"rt":1701.0000000009313,"rot1":25,"rot2":-5,"rot3":-15,"rot4":15,"rot5":5,"rot6":-25,"dil1":0.925,"dil2":0.975,"dil3":0.875,"dil4":1.075,"dil5":1.125,"dil6":1.025,"rots":[25,-5,-15,15,5,-25],"dils":[0.925,0.975,0.875,1.075,1.125,1.025],"loop_number":"NA","everTouched":null},{"id":"test","shape":"kite","outlier_type":3,"choice":3,"outlierPosition":3,"success":true,"majorityOfMostRegularShapes":true,"rt":5121.799999993527,"rot1":25,"rot2":-25,"rot3":-15,"rot4":-5,"rot5":5,"rot6":15,"dil1":0.925,"dil2":1.075,"dil3":0.875,"dil4":1.025,"dil5":0.975,"dil6":1.125,"rots":[25,-25,-15,-5,5,15],"dils":[0.925,1.075,0.875,1.025,0.975,1.125],"loop_number":"NA","everTouched":null},{"id":"test","shape":"rectangle","outlier_type":0,"choice":5,"outlierPosition":5,"success":true,"majorityOfMostRegularShapes":true,"rt":1741.2999999942258,"rot1":-15,"rot2":-25,"rot3":25,"rot4":15,"rot5":-5,"rot6":5,"dil1":0.975,"dil2":0.875,"dil3":1.075,"dil4":1.025,"dil5":0.925,"dil6":1.125,"rots":[-15,-25,25,15,-5,5],"dils":[0.975,0.875,1.075,1.025,0.925,1.125],"loop_number":"NA","everTouched":null},{"id":"test","shape":"losange","outlier_type":1,"choice":3,"outlierPosition":3,"success":true,"majorityOfMostRegularShapes":true,"rt":1486.799999984214,"rot1":25,"rot2":-5,"rot3":-25,"rot4":15,"rot5":5,"rot6":-15,"dil1":1.025,"dil2":0.875,"dil3":0.975,"dil4":1.075,"dil5":0.925,"dil6":1.125,"rots":[25,-5,-25,15,5,-15],"dils":[1.025,0.875,0.975,1.075,0.925,1.125],"loop_number":"NA","everTouched":null},{"id":"test","shape":"parallelogram","outlier_type":2,"choice":5,"outlierPosition":5,"success":true,"majorityOfMostRegularShapes":true,"rt":1746.4000000036322,"rot1":-15,"rot2":25,"rot3":-25,"rot4":5,"rot5":-5,"rot6":15,"dil1":0.975,"dil2":1.025,"dil3":1.125,"dil4":0.925,"dil5":0.875,"dil6":1.075,"rots":[-15,25,-25,5,-5,15],"dils":[0.975,1.025,1.125,0.925,0.875,1.075],"loop_number":"NA","everTouched":null},{"id":"test","shape":"trapezoid","outlier_type":0,"choice":2,"outlierPosition":5,"success":false,"majorityOfMostRegularShapes":true,"rt":8838.999999978114,"rot1":5,"rot2":-25,"rot3":15,"rot4":25,"rot5":-5,"rot6":-15,"dil1":0.975,"dil2":1.025,"dil3":0.875,"dil4":1.075,"dil5":0.925,"dil6":1.125,"rots":[5,-25,15,25,-5,-15],"dils":[0.975,1.025,0.875,1.075,0.925,1.125],"loop_number":"NA","everTouched":null},{"id":"test","shape":"square","outlier_type":1,"choice":3,"outlierPosition":3,"success":true,"majorityOfMostRegularShapes":true,"rt":1188.3000000088941,"rot1":-25,"rot2":25,"rot3":-15,"rot4":15,"rot5":5,"rot6":-5,"dil1":1.025,"dil2":0.875,"dil3":1.125,"dil4":0.975,"dil5":1.075,"dil6":0.925,"rots":[-25,25,-15,15,5,-5],"dils":[1.025,0.875,1.125,0.975,1.075,0.925],"loop_number":"NA","everTouched":null},{"id":"test","shape":"rightKite","outlier_type":0,"choice":1,"outlierPosition":1,"success":true,"majorityOfMostRegularShapes":true,"rt":16581.999999994878,"rot1":25,"rot2":5,"rot3":-15,"rot4":15,"rot5":-5,"rot6":-25,"dil1":1.025,"dil2":0.975,"dil3":1.075,"dil4":0.875,"dil5":0.925,"dil6":1.125,"rots":[25,5,-15,15,-5,-25],"dils":[1.025,0.975,1.075,0.875,0.925,1.125],"loop_number":"NA","everTouched":null},{"id":"test","shape":"square","outlier_type":2,"choice":0,"outlierPosition":0,"success":true,"majorityOfMostRegularShapes":true,"rt":1020.5999999889173,"rot1":-15,"rot2":-5,"rot3":25,"rot4":-25,"rot5":15,"rot6":5,"dil1":0.875,"dil2":1.075,"dil3":0.975,"dil4":1.025,"dil5":1.125,"dil6":0.925,"rots":[-15,-5,25,-25,15,5],"dils":[0.875,1.075,0.975,1.025,1.125,0.925],"loop_number":"NA","everTouched":null},{"id":"test","shape":"random","outlier_type":1,"choice":4,"outlierPosition":5,"success":false,"majorityOfMostRegularShapes":true,"rt":1796.6000000014901,"rot1":-25,"rot2":-15,"rot3":5,"rot4":-5,"rot5":25,"rot6":15,"dil1":1.125,"dil2":0.975,"dil3":1.025,"dil4":1.075,"dil5":0.925,"dil6":0.875,"rots":[-25,-15,5,-5,25,15],"dils":[1.125,0.975,1.025,1.075,0.925,0.875],"loop_number":"NA","everTouched":null},{"id":"test","shape":"trapezoid","outlier_type":3,"choice":5,"outlierPosition":5,"success":true,"majorityOfMostRegularShapes":true,"rt":6203.000000008615,"rot1":15,"rot2":25,"rot3":-5,"rot4":-25,"rot5":5,"rot6":-15,"dil1":0.875,"dil2":1.025,"dil3":0.925,"dil4":1.125,"dil5":0.975,"dil6":1.075,"rots":[15,25,-5,-25,5,-15],"dils":[0.875,1.025,0.925,1.125,0.975,1.075],"loop_number":"NA","everTouched":null},{"id":"test","shape":"parallelogram","outlier_type":0,"choice":1,"outlierPosition":1,"success":true,"majorityOfMostRegularShapes":true,"rt":2914.3999999796506,"rot1":15,"rot2":25,"rot3":5,"rot4":-25,"rot5":-15,"rot6":-5,"dil1":1.125,"dil2":0.875,"dil3":1.075,"dil4":1.025,"dil5":0.975,"dil6":0.925,"rots":[15,25,5,-25,-15,-5],"dils":[1.125,0.875,1.075,1.025,0.975,0.925],"loop_number":"NA","everTouched":null},{"id":"test","shape":"kite","outlier_type":1,"choice":3,"outlierPosition":3,"success":true,"majorityOfMostRegularShapes":true,"rt":5092.800000013085,"rot1":-5,"rot2":15,"rot3":-15,"rot4":25,"rot5":-25,"rot6":5,"dil1":1.025,"dil2":1.125,"dil3":1.075,"dil4":0.975,"dil5":0.875,"dil6":0.925,"rots":[-5,15,-15,25,-25,5],"dils":[1.025,1.125,1.075,0.975,0.875,0.925],"loop_number":"NA","everTouched":null},{"id":"test","shape":"trapezoid","outlier_type":2,"choice":5,"outlierPosition":5,"success":true,"majorityOfMostRegularShapes":true,"rt":6009.999999980209,"rot1":5,"rot2":-25,"rot3":-15,"rot4":25,"rot5":-5,"rot6":15,"dil1":0.925,"dil2":0.975,"dil3":0.875,"dil4":1.075,"dil5":1.025,"dil6":1.125,"rots":[5,-25,-15,25,-5,15],"dils":[0.925,0.975,0.875,1.075,1.025,1.125],"loop_number":"NA","everTouched":null},{"id":"test","shape":"hinge","outlier_type":3,"choice":0,"outlierPosition":0,"success":true,"majorityOfMostRegularShapes":true,"rt":13283.599999995204,"rot1":15,"rot2":25,"rot3":-5,"rot4":-25,"rot5":5,"rot6":-15,"dil1":0.875,"dil2":1.025,"dil3":1.125,"dil4":0.975,"dil5":1.075,"dil6":0.925,"rots":[15,25,-5,-25,5,-15],"dils":[0.875,1.025,1.125,0.975,1.075,0.925],"loop_number":"NA","everTouched":null},{"id":"test","shape":"rustedHinge","outlier_type":2,"choice":0,"outlierPosition":5,"success":false,"majorityOfMostRegularShapes":true,"rt":11445.999999996275,"rot1":-5,"rot2":-25,"rot3":25,"rot4":5,"rot5":-15,"rot6":15,"dil1":0.875,"dil2":0.975,"dil3":1.025,"dil4":0.925,"dil5":1.075,"dil6":1.125,"rots":[-5,-25,25,5,-15,15],"dils":[0.875,0.975,1.025,0.925,1.075,1.125],"loop_number":"NA","everTouched":null},{"id":"test","shape":"hinge","outlier_type":0,"choice":4,"outlierPosition":1,"success":false,"majorityOfMostRegularShapes":true,"rt":9610.899999999674,"rot1":-15,"rot2":25,"rot3":5,"rot4":15,"rot5":-5,"rot6":-25,"dil1":0.925,"dil2":0.875,"dil3":1.125,"dil4":1.025,"dil5":1.075,"dil6":0.975,"rots":[-15,25,5,15,-5,-25],"dils":[0.925,0.875,1.125,1.025,1.075,0.975],"loop_number":"NA","everTouched":null}],"desiredDistance":0.3,"trial_type":"oddball-grid","trial_index":3,"time_elapsed":409967,"internal_node_id":"0.0-3.0","ID":"p069416k1y"},{"success":true,"trial_type":"fullscreen","trial_index":4,"time_elapsed":417962,"internal_node_id":"0.0-4.0","ID":"p069416k1y"}]