[{"success":true,"trial_type":"fullscreen","trial_index":0,"time_elapsed":16095,"internal_node_id":"0.0-0.0","ID":"0vfn5ymyba"},{"results":[{"id":"train-images","shape":"10","outlier_type":"NA","choice":1,"outlierPosition":1,"success":true,"majorityOfMostRegularShapes":"NA","rt":5083.9000000000015,"rot1":-5,"rot2":-25,"rot3":-15,"rot4":15,"rot5":25,"rot6":5,"dil1":0.875,"dil2":0.925,"dil3":1.075,"dil4":1.125,"dil5":0.975,"dil6":1.025,"rots":[-5,-25,-15,15,25,5],"dils":[0.875,0.925,1.075,1.125,0.975,1.025],"loop_number":1,"everTouched":null},{"id":"train-images","shape":"7","outlier_type":"NA","choice":5,"outlierPosition":5,"success":true,"majorityOfMostRegularShapes":"NA","rt":1273,"rot1":-25,"rot2":-5,"rot3":5,"rot4":15,"rot5":25,"rot6":-15,"dil1":1.075,"dil2":1.125,"dil3":0.875,"dil4":0.925,"dil5":1.025,"dil6":0.975,"rots":[-25,-5,5,15,25,-15],"dils":[1.075,1.125,0.875,0.925,1.025,0.975],"loop_number":1,"everTouched":null},{"id":"train-images","shape":"3","outlier_type":"NA","choice":5,"outlierPosition":5,"success":true,"majorityOfMostRegularShapes":"NA","rt":1448.100000000013,"rot1":-25,"rot2":15,"rot3":25,"rot4":-5,"rot5":5,"rot6":-15,"dil1":0.925,"dil2":1.025,"dil3":0.875,"dil4":0.975,"dil5":1.125,"dil6":1.075,"rots":[-25,15,25,-5,5,-15],"dils":[0.925,1.025,0.875,0.975,1.125,1.075],"loop_number":1,"everTouched":null},{"id":"train-images","shape":"6","outlier_type":"NA","choice":4,"outlierPosition":4,"success":true,"majorityOfMostRegularShapes":"NA","rt":3140.5000000000073,"rot1":-5,"rot2":25,"rot3":-25,"rot4":-15,"rot5":15,"rot6":5,"dil1":1.075,"dil2":0.925,"dil3":1.025,"dil4":1.125,"dil5":0.975,"dil6":0.875,"rots":[-5,25,-25,-15,15,5],"dils":[1.075,0.925,1.025,1.125,0.975,0.875],"loop_number":1,"everTouched":null},{"id":"train-images","shape":"8","outlier_type":"NA","choice":0,"outlierPosition":0,"success":true,"majorityOfMostRegularShapes":"NA","rt":1340.4999999999927,"rot1":-25,"rot2":-5,"rot3":25,"rot4":15,"rot5":5,"rot6":-15,"dil1":0.925,"dil2":0.975,"dil3":0.875,"dil4":1.125,"dil5":1.025,"dil6":1.075,"rots":[-25,-5,25,15,5,-15],"dils":[0.925,0.975,0.875,1.125,1.025,1.075],"loop_number":1,"everTouched":null},{"id":"train-images","shape":"9","outlier_type":"NA","choice":0,"outlierPosition":0,"success":true,"majorityOfMostRegularShapes":"NA","rt":1074.1999999999898,"rot1":-25,"rot2":-15,"rot3":25,"rot4":15,"rot5":5,"rot6":-5,"dil1":1.025,"dil2":0.975,"dil3":0.875,"dil4":1.125,"dil5":0.925,"dil6":1.075,"rots":[-25,-15,25,15,5,-5],"dils":[1.025,0.975,0.875,1.125,0.925,1.075],"loop_number":1,"everTouched":null},{"id":"train-images","shape":"5","outlier_type":"NA","choice":2,"outlierPosition":2,"success":true,"majorityOfMostRegularShapes":"NA","rt":831.1999999999898,"rot1":25,"rot2":5,"rot3":15,"rot4":-15,"rot5":-5,"rot6":-25,"dil1":0.975,"dil2":1.025,"dil3":1.125,"dil4":0.875,"dil5":0.925,"dil6":1.075,"rots":[25,5,15,-15,-5,-25],"dils":[0.975,1.025,1.125,0.875,0.925,1.075],"loop_number":1,"everTouched":null},{"id":"train-images","shape":"2","outlier_type":"NA","choice":3,"outlierPosition":3,"success":true,"majorityOfMostRegularShapes":"NA","rt":885.4000000000087,"rot1":-15,"rot2":5,"rot3":-5,"rot4":25,"rot5":-25,"rot6":15,"dil1":0.975,"dil2":1.025,"dil3":0.875,"dil4":1.075,"dil5":0.925,"dil6":1.125,"rots":[-15,5,-5,25,-25,15],"dils":[0.975,1.025,0.875,1.075,0.925,1.125],"loop_number":1,"everTouched":null},{"id":"train-images","shape":"4","outlier_type":"NA","choice":0,"outlierPosition":0,"success":true,"majorityOfMostRegularShapes":"NA","rt":1522.5000000000073,"rot1":25,"rot2":-25,"rot3":5,"rot4":15,"rot5":-15,"rot6":-5,"dil1":0.975,"dil2":1.125,"dil3":1.075,"dil4":0.875,"dil5":0.925,"dil6":1.025,"rots":[25,-25,5,15,-15,-5],"dils":[0.975,1.125,1.075,0.875,0.925,1.025],"loop_number":1,"everTouched":null},{"id":"train-images","shape":"1","outlier_type":"NA","choice":5,"outlierPosition":5,"success":true,"majorityOfMostRegularShapes":"NA","rt":719.0999999999985,"rot1":25,"rot2":-15,"rot3":-25,"rot4":15,"rot5":5,"rot6":-5,"dil1":0.975,"dil2":1.125,"dil3":1.025,"dil4":0.875,"dil5":0.925,"dil6":1.075,"rots":[25,-15,-25,15,5,-5],"dils":[0.975,1.125,1.025,0.875,0.925,1.075],"loop_number":1,"everTouched":null}],"trial_type":"oddball-grid-image","trial_index":1,"time_elapsed":57223,"internal_node_id":"0.0-1.0","ID":"0vfn5ymyba"},{"results":[{"id":"train","shape":null,"outlier_type":null,"choice":0,"outlierPosition":0,"success":true,"majorityOfMostRegularShapes":null,"rt":1306.5999999999985,"rot1":25,"rot2":15,"rot3":-25,"rot4":5,"rot5":-5,"rot6":-15,"dil1":0.925,"dil2":1.125,"dil3":0.975,"dil4":0.875,"dil5":1.025,"dil6":1.075,"rots":[25,15,-25,5,-5,-15],"dils":[0.925,1.125,0.975,0.875,1.025,1.075],"loop_number":1,"everTouched":null},{"id":"train","shape":null,"outlier_type":null,"choice":5,"outlierPosition":5,"success":true,"majorityOfMostRegularShapes":null,"rt":847.3999999999869,"rot1":5,"rot2":15,"rot3":-15,"rot4":25,"rot5":-5,"rot6":-25,"dil1":0.875,"dil2":1.025,"dil3":0.925,"dil4":1.075,"dil5":1.125,"dil6":0.975,"rots":[5,15,-15,25,-5,-25],"dils":[0.875,1.025,0.925,1.075,1.125,0.975],"loop_number":1,"everTouched":null},{"id":"train","shape":null,"outlier_type":null,"choice":1,"outlierPosition":1,"success":true,"majorityOfMostRegularShapes":null,"rt":1132.3999999999796,"rot1":15,"rot2":-25,"rot3":-5,"rot4":-15,"rot5":5,"rot6":25,"dil1":1.125,"dil2":0.875,"dil3":1.075,"dil4":1.025,"dil5":0.975,"dil6":0.925,"rots":[15,-25,-5,-15,5,25],"dils":[1.125,0.875,1.075,1.025,0.975,0.925],"loop_number":1,"everTouched":null},{"id":"train","shape":null,"outlier_type":null,"choice":5,"outlierPosition":5,"success":true,"majorityOfMostRegularShapes":null,"rt":710.8000000000029,"rot1":-5,"rot2":15,"rot3":25,"rot4":-15,"rot5":5,"rot6":-25,"dil1":1.075,"dil2":0.975,"dil3":0.875,"dil4":1.025,"dil5":0.925,"dil6":1.125,"rots":[-5,15,25,-15,5,-25],"dils":[1.075,0.975,0.875,1.025,0.925,1.125],"loop_number":1,"everTouched":null},{"id":"train","shape":null,"outlier_type":null,"choice":1,"outlierPosition":1,"success":true,"majorityOfMostRegularShapes":null,"rt":1664.9000000000087,"rot1":-25,"rot2":-5,"rot3":25,"rot4":5,"rot5":15,"rot6":-15,"dil1":1.025,"dil2":0.975,"dil3":0.925,"dil4":0.875,"dil5":1.075,"dil6":1.125,"rots":[-25,-5,25,5,15,-15],"dils":[1.025,0.975,0.925,0.875,1.075,1.125],"loop_number":1,"everTouched":null},{"id":"train","shape":null,"outlier_type":null,"choice":4,"outlierPosition":4,"success":true,"majorityOfMostRegularShapes":null,"rt":1059.4000000000087,"rot1":5,"rot2":15,"rot3":-5,"rot4":-25,"rot5":-15,"rot6":25,"dil1":0.925,"dil2":0.975,"dil3":0.875,"dil4":1.025,"dil5":1.125,"dil6":1.075,"rots":[5,15,-5,-25,-15,25],"dils":[0.925,0.975,0.875,1.025,1.125,1.075],"loop_number":1,"everTouched":null}],"desiredDistance":0.3,"trial_type":"oddball-grid-easy","trial_index":2,"time_elapsed":72395,"internal_node_id":"0.0-2.0","ID":"0vfn5ymyba"},{"results":[{"id":"test","shape":"isoTrapezoid","outlier_type":3,"choice":2,"outlierPosition":2,"success":true,"majorityOfMostRegularShapes":true,"rt":3673.9000000000087,"rot1":-5,"rot2":-15,"rot3":5,"rot4":15,"rot5":-25,"rot6":25,"dil1":0.875,"dil2":1.025,"dil3":1.075,"dil4":1.125,"dil5":0.925,"dil6":0.975,"rots":[-5,-15,5,15,-25,25],"dils":[0.875,1.025,1.075,1.125,0.925,0.975],"loop_number":"NA","everTouched":null},{"id":"test","shape":"rectangle","outlier_type":1,"choice":4,"outlierPosition":4,"success":true,"majorityOfMostRegularShapes":true,"rt":1426.7999999999884,"rot1":-25,"rot2":-15,"rot3":25,"rot4":15,"rot5":5,"rot6":-5,"dil1":1.125,"dil2":0.925,"dil3":0.975,"dil4":1.075,"dil5":0.875,"dil6":1.025,"rots":[-25,-15,25,15,5,-5],"dils":[1.125,0.925,0.975,1.075,0.875,1.025],"loop_number":"NA","everTouched":null},{"id":"test","shape":"random","outlier_type":0,"choice":5,"outlierPosition":4,"success":false,"majorityOfMostRegularShapes":true,"rt":7066.200000000012,"rot1":5,"rot2":25,"rot3":-5,"rot4":-15,"rot5":-25,"rot6":15,"dil1":0.975,"dil2":1.025,"dil3":0.875,"dil4":1.125,"dil5":0.925,"dil6":1.075,"rots":[5,25,-5,-15,-25,15],"dils":[0.975,1.025,0.875,1.125,0.925,1.075],"loop_number":"NA","everTouched":null},{"id":"test","shape":"kite","outlier_type":2,"choice":0,"outlierPosition":0,"success":true,"majorityOfMostRegularShapes":true,"rt":4165.000000000015,"rot1":-25,"rot2":25,"rot3":-15,"rot4":5,"rot5":15,"rot6":-5,"dil1":0.875,"dil2":1.125,"dil3":1.075,"dil4":0.925,"dil5":1.025,"dil6":0.975,"rots":[-25,25,-15,5,15,-5],"dils":[0.875,1.125,1.075,0.925,1.025,0.975],"loop_number":"NA","everTouched":null},{"id":"test","shape":"hinge","outlier_type":1,"choice":3,"outlierPosition":3,"success":true,"majorityOfMostRegularShapes":true,"rt":5283.099999999991,"rot1":-15,"rot2":5,"rot3":25,"rot4":15,"rot5":-25,"rot6":-5,"dil1":0.975,"dil2":1.025,"dil3":1.125,"dil4":0.875,"dil5":0.925,"dil6":1.075,"rots":[-15,5,25,15,-25,-5],"dils":[0.975,1.025,1.125,0.875,0.925,1.075],"loop_number":"NA","everTouched":null},{"id":"test","shape":"kite","outlier_type":0,"choice":5,"outlierPosition":5,"success":true,"majorityOfMostRegularShapes":true,"rt":3372.2999999999884,"rot1":15,"rot2":-5,"rot3":25,"rot4":-15,"rot5":5,"rot6":-25,"dil1":1.075,"dil2":0.875,"dil3":1.025,"dil4":1.125,"dil5":0.975,"dil6":0.925,"rots":[15,-5,25,-15,5,-25],"dils":[1.075,0.875,1.025,1.125,0.975,0.925],"loop_number":"NA","everTouched":null},{"id":"test","shape":"random","outlier_type":2,"choice":0,"outlierPosition":0,"success":true,"majorityOfMostRegularShapes":true,"rt":4161.399999999994,"rot1":25,"rot2":15,"rot3":-25,"rot4":-15,"rot5":5,"rot6":-5,"dil1":1.025,"dil2":1.125,"dil3":1.075,"dil4":0.875,"dil5":0.925,"dil6":0.975,"rots":[25,15,-25,-15,5,-5],"dils":[1.025,1.125,1.075,0.875,0.925,0.975],"loop_number":"NA","everTouched":null},{"id":"test","shape":"square","outlier_type":1,"choice":5,"outlierPosition":5,"success":true,"majorityOfMostRegularShapes":true,"rt":1268.800000000003,"rot1":5,"rot2":-5,"rot3":-25,"rot4":15,"rot5":25,"rot6":-15,"dil1":0.875,"dil2":1.075,"dil3":0.975,"dil4":1.025,"dil5":0.925,"dil6":1.125,"rots":[5,-5,-25,15,25,-15],"dils":[0.875,1.075,0.975,1.025,0.925,1.125],"loop_number":"NA","everTouched":null},{"id":"test","shape":"rustedHinge","outlier_type":2,"choice":3,"outlierPosition":3,"success":true,"majorityOfMostRegularShapes":true,"rt":3836.0999999999767,"rot1":-15,"rot2":25,"rot3":5,"rot4":-5,"rot5":15,"rot6":-25,"dil1":0.975,"dil2":1.125,"dil3":1.025,"dil4":1.075,"dil5":0.925,"dil6":0.875,"rots":[-15,25,5,-5,15,-25],"dils":[0.975,1.125,1.025,1.075,0.925,0.875],"loop_number":"NA","everTouched":null},{"id":"test","shape":"rightKite","outlier_type":0,"choice":5,"outlierPosition":5,"success":true,"majorityOfMostRegularShapes":true,"rt":1993.4000000000087,"rot1":-15,"rot2":25,"rot3":-25,"rot4":-5,"rot5":15,"rot6":5,"dil1":0.925,"dil2":1.075,"dil3":1.025,"dil4":1.125,"dil5":0.875,"dil6":0.975,"rots":[-15,25,-25,-5,15,5],"dils":[0.925,1.075,1.025,1.125,0.875,0.975],"loop_number":"NA","everTouched":null},{"id":"test","shape":"kite","outlier_type":3,"choice":0,"outlierPosition":0,"success":true,"majorityOfMostRegularShapes":true,"rt":1782.1000000000058,"rot1":-15,"rot2":25,"rot3":-5,"rot4":5,"rot5":15,"rot6":-25,"dil1":0.925,"dil2":0.875,"dil3":0.975,"dil4":1.125,"dil5":1.075,"dil6":1.025,"rots":[-15,25,-5,5,15,-25],"dils":[0.925,0.875,0.975,1.125,1.075,1.025],"loop_number":"NA","everTouched":null},{"id":"test","shape":"rectangle","outlier_type":2,"choice":4,"outlierPosition":4,"success":true,"majorityOfMostRegularShapes":true,"rt":1148.800000000003,"rot1":-5,"rot2":-25,"rot3":-15,"rot4":5,"rot5":25,"rot6":15,"dil1":0.975,"dil2":0.925,"dil3":1.125,"dil4":0.875,"dil5":1.025,"dil6":1.075,"rots":[-5,-25,-15,5,25,15],"dils":[0.975,0.925,1.125,0.875,1.025,1.075],"loop_number":"NA","everTouched":null},{"id":"test","shape":"rustedHinge","outlier_type":3,"choice":5,"outlierPosition":5,"success":true,"majorityOfMostRegularShapes":true,"rt":2185.6999999999825,"rot1":-25,"rot2":15,"rot3":-5,"rot4":5,"rot5":25,"rot6":-15,"dil1":1.125,"dil2":0.875,"dil3":0.975,"dil4":1.075,"dil5":0.925,"dil6":1.025,"rots":[-25,15,-5,5,25,-15],"dils":[1.125,0.875,0.975,1.075,0.925,1.025],"loop_number":"NA","everTouched":null},{"id":"test","shape":"trapezoid","outlier_type":2,"choice":1,"outlierPosition":0,"success":false,"majorityOfMostRegularShapes":true,"rt":2119.2000000000116,"rot1":5,"rot2":25,"rot3":15,"rot4":-15,"rot5":-5,"rot6":-25,"dil1":0.875,"dil2":1.075,"dil3":1.125,"dil4":0.925,"dil5":0.975,"dil6":1.025,"rots":[5,25,15,-15,-5,-25],"dils":[0.875,1.075,1.125,0.925,0.975,1.025],"loop_number":"NA","everTouched":null},{"id":"test","shape":"hinge","outlier_type":0,"choice":5,"outlierPosition":5,"success":true,"majorityOfMostRegularShapes":true,"rt":5216.399999999994,"rot1":-15,"rot2":5,"rot3":15,"rot4":25,"rot5":-25,"rot6":-5,"dil1":1.075,"dil2":0.975,"dil3":1.025,"dil4":0.875,"dil5":1.125,"dil6":0.925,"rots":[-15,5,15,25,-25,-5],"dils":[1.075,0.975,1.025,0.875,1.125,0.925],"loop_number":"NA","everTouched":null},{"id":"test","shape":"random","outlier_type":1,"choice":0,"outlierPosition":0,"success":true,"majorityOfMostRegularShapes":true,"rt":3541.4000000000233,"rot1":-15,"rot2":-25,"rot3":25,"rot4":15,"rot5":-5,"rot6":5,"dil1":1.125,"dil2":0.875,"dil3":1.075,"dil4":1.025,"dil5":0.975,"dil6":0.925,"rots":[-15,-25,25,15,-5,5],"dils":[1.125,0.875,1.075,1.025,0.975,0.925],"loop_number":"NA","everTouched":null},{"id":"test","shape":"trapezoid","outlier_type":3,"choice":2,"outlierPosition":2,"success":true,"majorityOfMostRegularShapes":true,"rt":5888.5,"rot1":5,"rot2":25,"rot3":-15,"rot4":15,"rot5":-5,"rot6":-25,"dil1":1.125,"dil2":1.025,"dil3":0.925,"dil4":0.975,"dil5":0.875,"dil6":1.075,"rots":[5,25,-15,15,-5,-25],"dils":[1.125,1.025,0.925,0.975,0.875,1.075],"loop_number":"NA","everTouched":null},{"id":"test","shape":"isoTrapezoid","outlier_type":0,"choice":2,"outlierPosition":2,"success":true,"majorityOfMostRegularShapes":true,"rt":2535.600000000006,"rot1":-25,"rot2":25,"rot3":5,"rot4":15,"rot5":-15,"rot6":-5,"dil1":0.875,"dil2":0.925,"dil3":1.025,"dil4":1.075,"dil5":1.125,"dil6":0.975,"rots":[-25,25,5,15,-15,-5],"dils":[0.875,0.925,1.025,1.075,1.125,0.975],"loop_number":"NA","everTouched":null},{"id":"test","shape":"rightKite","outlier_type":2,"choice":2,"outlierPosition":2,"success":true,"majorityOfMostRegularShapes":true,"rt":4772.500000000029,"rot1":-25,"rot2":15,"rot3":-5,"rot4":25,"rot5":5,"rot6":-15,"dil1":1.025,"dil2":1.075,"dil3":0.875,"dil4":0.975,"dil5":1.125,"dil6":0.925,"rots":[-25,15,-5,25,5,-15],"dils":[1.025,1.075,0.875,0.975,1.125,0.925],"loop_number":"NA","everTouched":null},{"id":"test","shape":"trapezoid","outlier_type":1,"choice":2,"outlierPosition":2,"success":true,"majorityOfMostRegularShapes":true,"rt":3876.3000000000175,"rot1":5,"rot2":15,"rot3":25,"rot4":-15,"rot5":-5,"rot6":-25,"dil1":0.975,"dil2":1.075,"dil3":1.125,"dil4":0.875,"dil5":0.925,"dil6":1.025,"rots":[5,15,25,-15,-5,-25],"dils":[0.975,1.075,1.125,0.875,0.925,1.025],"loop_number":"NA","everTouched":null},{"id":"test","shape":"isoTrapezoid","outlier_type":2,"choice":3,"outlierPosition":3,"success":true,"majorityOfMostRegularShapes":true,"rt":2465.000000000029,"rot1":25,"rot2":15,"rot3":5,"rot4":-15,"rot5":-25,"rot6":-5,"dil1":1.125,"dil2":0.875,"dil3":0.925,"dil4":0.975,"dil5":1.075,"dil6":1.025,"rots":[25,15,5,-15,-25,-5],"dils":[1.125,0.875,0.925,0.975,1.075,1.025],"loop_number":"NA","everTouched":null},{"id":"test","shape":"square","outlier_type":0,"choice":2,"outlierPosition":2,"success":true,"majorityOfMostRegularShapes":true,"rt":2391.2000000000116,"rot1":25,"rot2":5,"rot3":-5,"rot4":15,"rot5":-25,"rot6":-15,"dil1":1.125,"dil2":0.975,"dil3":0.875,"dil4":0.925,"dil5":1.075,"dil6":1.025,"rots":[25,5,-5,15,-25,-15],"dils":[1.125,0.975,0.875,0.925,1.075,1.025],"loop_number":"NA","everTouched":null},{"id":"test","shape":"parallelogram","outlier_type":3,"choice":0,"outlierPosition":0,"success":true,"majorityOfMostRegularShapes":true,"rt":1982.4000000000233,"rot1":-5,"rot2":-15,"rot3":5,"rot4":15,"rot5":-25,"rot6":25,"dil1":1.125,"dil2":1.075,"dil3":0.975,"dil4":0.925,"dil5":0.875,"dil6":1.025,"rots":[-5,-15,5,15,-25,25],"dils":[1.125,1.075,0.975,0.925,0.875,1.025],"loop_number":"NA","everTouched":null},{"id":"test","shape":"hinge","outlier_type":2,"choice":1,"outlierPosition":1,"success":true,"majorityOfMostRegularShapes":true,"rt":2707.500000000029,"rot1":-15,"rot2":-25,"rot3":5,"rot4":-5,"rot5":15,"rot6":25,"dil1":1.075,"dil2":1.025,"dil3":1.125,"dil4":0.925,"dil5":0.975,"dil6":0.875,"rots":[-15,-25,5,-5,15,25],"dils":[1.075,1.025,1.125,0.925,0.975,0.875],"loop_number":"NA","everTouched":null},{"id":"test","shape":"rightKite","outlier_type":1,"choice":2,"outlierPosition":2,"success":true,"majorityOfMostRegularShapes":true,"rt":2670.000000000029,"rot1":-15,"rot2":5,"rot3":25,"rot4":-5,"rot5":-25,"rot6":15,"dil1":0.925,"dil2":1.025,"dil3":1.125,"dil4":0.975,"dil5":0.875,"dil6":1.075,"rots":[-15,5,25,-5,-25,15],"dils":[0.925,1.025,1.125,0.975,0.875,1.075],"loop_number":"NA","everTouched":null},{"id":"test","shape":"random","outlier_type":3,"choice":3,"outlierPosition":3,"success":true,"majorityOfMostRegularShapes":true,"rt":3504.100000000006,"rot1":-25,"rot2":15,"rot3":5,"rot4":25,"rot5":-15,"rot6":-5,"dil1":0.925,"dil2":1.075,"dil3":1.125,"dil4":1.025,"dil5":0.975,"dil6":0.875,"rots":[-25,15,5,25,-15,-5],"dils":[0.925,1.075,1.125,1.025,0.975,0.875],"loop_number":"NA","everTouched":null},{"id":"test","shape":"parallelogram","outlier_type":1,"choice":4,"outlierPosition":4,"success":true,"majorityOfMostRegularShapes":true,"rt":2531.2999999999884,"rot1":15,"rot2":5,"rot3":-25,"rot4":25,"rot5":-15,"rot6":-5,"dil1":1.125,"dil2":1.025,"dil3":0.975,"dil4":0.925,"dil5":0.875,"dil6":1.075,"rots":[15,5,-25,25,-15,-5],"dils":[1.125,1.025,0.975,0.925,0.875,1.075],"loop_number":"NA","everTouched":null},{"id":"test","shape":"square","outlier_type":3,"choice":5,"outlierPosition":5,"success":true,"majorityOfMostRegularShapes":true,"rt":1567.4000000000233,"rot1":5,"rot2":-5,"rot3":-25,"rot4":-15,"rot5":25,"rot6":15,"dil1":0.875,"dil2":0.975,"dil3":0.925,"dil4":1.025,"dil5":1.125,"dil6":1.075,"rots":[5,-5,-25,-15,25,15],"dils":[0.875,0.975,0.925,1.025,1.125,1.075],"loop_number":"NA","everTouched":null},{"id":"test","shape":"parallelogram","outlier_type":2,"choice":2,"outlierPosition":2,"success":true,"majorityOfMostRegularShapes":true,"rt":2568.399999999994,"rot1":5,"rot2":15,"rot3":25,"rot4":-15,"rot5":-25,"rot6":-5,"dil1":1.125,"dil2":0.975,"dil3":0.875,"dil4":0.925,"dil5":1.025,"dil6":1.075,"rots":[5,15,25,-15,-25,-5],"dils":[1.125,0.975,0.875,0.925,1.025,1.075],"loop_number":"NA","everTouched":null},{"id":"test","shape":"trapezoid","outlier_type":0,"choice":4,"outlierPosition":4,"success":true,"majorityOfMostRegularShapes":true,"rt":8075.500000000029,"rot1":-25,"rot2":-5,"rot3":-15,"rot4":25,"rot5":15,"rot6":5,"dil1":1.025,"dil2":0.975,"dil3":1.125,"dil4":1.075,"dil5":0.875,"dil6":0.925,"rots":[-25,-5,-15,25,15,5],"dils":[1.025,0.975,1.125,1.075,0.875,0.925],"loop_number":"NA","everTouched":null},{"id":"test","shape":"losange","outlier_type":3,"choice":5,"outlierPosition":5,"success":true,"majorityOfMostRegularShapes":true,"rt":1669.0000000000582,"rot1":-5,"rot2":25,"rot3":15,"rot4":-15,"rot5":-25,"rot6":5,"dil1":0.975,"dil2":0.925,"dil3":1.025,"dil4":0.875,"dil5":1.125,"dil6":1.075,"rots":[-5,25,15,-15,-25,5],"dils":[0.975,0.925,1.025,0.875,1.125,1.075],"loop_number":"NA","everTouched":null},{"id":"test","shape":"hinge","outlier_type":3,"choice":3,"outlierPosition":3,"success":true,"majorityOfMostRegularShapes":true,"rt":5681.799999999988,"rot1":25,"rot2":-5,"rot3":5,"rot4":-25,"rot5":15,"rot6":-15,"dil1":0.975,"dil2":1.025,"dil3":1.125,"dil4":0.875,"dil5":0.925,"dil6":1.075,"rots":[25,-5,5,-25,15,-15],"dils":[0.975,1.025,1.125,0.875,0.925,1.075],"loop_number":"NA","everTouched":null},{"id":"test","shape":"rectangle","outlier_type":0,"choice":2,"outlierPosition":2,"success":true,"majorityOfMostRegularShapes":true,"rt":1633.7000000000116,"rot1":-25,"rot2":15,"rot3":-15,"rot4":-5,"rot5":25,"rot6":5,"dil1":1.025,"dil2":0.975,"dil3":0.875,"dil4":1.125,"dil5":0.925,"dil6":1.075,"rots":[-25,15,-15,-5,25,5],"dils":[1.025,0.975,0.875,1.125,0.925,1.075],"loop_number":"NA","everTouched":null},{"id":"test","shape":"losange","outlier_type":0,"choice":2,"outlierPosition":2,"success":true,"majorityOfMostRegularShapes":true,"rt":2811.000000000058,"rot1":-15,"rot2":15,"rot3":-25,"rot4":5,"rot5":25,"rot6":-5,"dil1":0.975,"dil2":0.875,"dil3":1.075,"dil4":0.925,"dil5":1.025,"dil6":1.125,"rots":[-15,15,-25,5,25,-5],"dils":[0.975,0.875,1.075,0.925,1.025,1.125],"loop_number":"NA","everTouched":null},{"id":"test","shape":"rightKite","outlier_type":3,"choice":5,"outlierPosition":5,"success":true,"majorityOfMostRegularShapes":true,"rt":4179.399999999965,"rot1":5,"rot2":-5,"rot3":-15,"rot4":-25,"rot5":25,"rot6":15,"dil1":0.975,"dil2":0.875,"dil3":1.125,"dil4":1.025,"dil5":0.925,"dil6":1.075,"rots":[5,-5,-15,-25,25,15],"dils":[0.975,0.875,1.125,1.025,0.925,1.075],"loop_number":"NA","everTouched":null},{"id":"test","shape":"parallelogram","outlier_type":0,"choice":4,"outlierPosition":4,"success":true,"majorityOfMostRegularShapes":true,"rt":2457.7000000000116,"rot1":-15,"rot2":-5,"rot3":25,"rot4":-25,"rot5":5,"rot6":15,"dil1":0.975,"dil2":1.025,"dil3":1.125,"dil4":1.075,"dil5":0.875,"dil6":0.925,"rots":[-15,-5,25,-25,5,15],"dils":[0.975,1.025,1.125,1.075,0.875,0.925],"loop_number":"NA","everTouched":null},{"id":"test","shape":"losange","outlier_type":2,"choice":5,"outlierPosition":5,"success":true,"majorityOfMostRegularShapes":true,"rt":1229.499999999971,"rot1":-25,"rot2":-5,"rot3":-15,"rot4":25,"rot5":15,"rot6":5,"dil1":0.875,"dil2":0.925,"dil3":1.125,"dil4":0.975,"dil5":1.025,"dil6":1.075,"rots":[-25,-5,-15,25,15,5],"dils":[0.875,0.925,1.125,0.975,1.025,1.075],"loop_number":"NA","everTouched":null},{"id":"test","shape":"rustedHinge","outlier_type":1,"choice":2,"outlierPosition":2,"success":true,"majorityOfMostRegularShapes":true,"rt":1751.6000000000058,"rot1":5,"rot2":-25,"rot3":-15,"rot4":-5,"rot5":15,"rot6":25,"dil1":0.925,"dil2":1.125,"dil3":0.875,"dil4":0.975,"dil5":1.075,"dil6":1.025,"rots":[5,-25,-15,-5,15,25],"dils":[0.925,1.125,0.875,0.975,1.075,1.025],"loop_number":"NA","everTouched":null},{"id":"test","shape":"rectangle","outlier_type":3,"choice":0,"outlierPosition":0,"success":true,"majorityOfMostRegularShapes":true,"rt":1575.0999999999767,"rot1":-15,"rot2":-25,"rot3":5,"rot4":25,"rot5":-5,"rot6":15,"dil1":0.975,"dil2":1.125,"dil3":0.875,"dil4":1.025,"dil5":1.075,"dil6":0.925,"rots":[-15,-25,5,25,-5,15],"dils":[0.975,1.125,0.875,1.025,1.075,0.925],"loop_number":"NA","everTouched":null},{"id":"test","shape":"square","outlier_type":2,"choice":1,"outlierPosition":1,"success":true,"majorityOfMostRegularShapes":true,"rt":940.9999999999709,"rot1":5,"rot2":-5,"rot3":-25,"rot4":-15,"rot5":15,"rot6":25,"dil1":0.975,"dil2":0.925,"dil3":0.875,"dil4":1.025,"dil5":1.125,"dil6":1.075,"rots":[5,-5,-25,-15,15,25],"dils":[0.975,0.925,0.875,1.025,1.125,1.075],"loop_number":"NA","everTouched":null},{"id":"test","shape":"rustedHinge","outlier_type":0,"choice":4,"outlierPosition":4,"success":true,"majorityOfMostRegularShapes":true,"rt":2576.1999999999534,"rot1":-5,"rot2":-15,"rot3":5,"rot4":15,"rot5":25,"rot6":-25,"dil1":1.125,"dil2":0.975,"dil3":1.025,"dil4":1.075,"dil5":0.875,"dil6":0.925,"rots":[-5,-15,5,15,25,-25],"dils":[1.125,0.975,1.025,1.075,0.875,0.925],"loop_number":"NA","everTouched":null},{"id":"test","shape":"kite","outlier_type":1,"choice":2,"outlierPosition":2,"success":true,"majorityOfMostRegularShapes":true,"rt":2936.5,"rot1":25,"rot2":-5,"rot3":-25,"rot4":5,"rot5":15,"rot6":-15,"dil1":1.125,"dil2":1.075,"dil3":0.975,"dil4":1.025,"dil5":0.875,"dil6":0.925,"rots":[25,-5,-25,5,15,-15],"dils":[1.125,1.075,0.975,1.025,0.875,0.925],"loop_number":"NA","everTouched":null},{"id":"test","shape":"isoTrapezoid","outlier_type":1,"choice":3,"outlierPosition":3,"success":true,"majorityOfMostRegularShapes":true,"rt":5829.399999999965,"rot1":5,"rot2":15,"rot3":-15,"rot4":-5,"rot5":25,"rot6":-25,"dil1":0.925,"dil2":0.875,"dil3":1.025,"dil4":1.125,"dil5":0.975,"dil6":1.075,"rots":[5,15,-15,-5,25,-25],"dils":[0.925,0.875,1.025,1.125,0.975,1.075],"loop_number":"NA","everTouched":null},{"id":"test","shape":"losange","outlier_type":1,"choice":4,"outlierPosition":4,"success":true,"majorityOfMostRegularShapes":true,"rt":994.7999999999884,"rot1":-5,"rot2":-25,"rot3":15,"rot4":-15,"rot5":25,"rot6":5,"dil1":0.975,"dil2":1.025,"dil3":1.125,"dil4":0.925,"dil5":0.875,"dil6":1.075,"rots":[-5,-25,15,-15,25,5],"dils":[0.975,1.025,1.125,0.925,0.875,1.075],"loop_number":"NA","everTouched":null}],"desiredDistance":0.3,"trial_type":"oddball-grid","trial_index":3,"time_elapsed":272359,"internal_node_id":"0.0-3.0","ID":"0vfn5ymyba"},{"success":true,"trial_type":"fullscreen","trial_index":4,"time_elapsed":276406,"internal_node_id":"0.0-4.0","ID":"0vfn5ymyba"}]