"success","trial_type","trial_index","time_elapsed","internal_node_id","ID","rt","stimulus","button_pressed","button_pressed_text"
"true","fullscreen","0","22913","0.0-0.0","xn8mq950tz","","","",""
"","html-button-response","1","24247","0.0-1.0","xn8mq950tz","1316.899999997986"," ","1","9"
"","html-button-response","2","25414","0.0-2.0","xn8mq950tz","1164.199999999255"," ","1","6"
"","html-button-response","3","26729","0.0-3.0","xn8mq950tz","1312.5999999974738"," ","0","5"
"","html-button-response","4","27867","0.0-4.0","xn8mq950tz","1133.9000000007218"," ","0","3"
"","html-button-response","5","28833","0.0-5.0","xn8mq950tz","963.1999999983236"," ","0","4"
"","html-button-response","6","29625","0.0-6.0","xn8mq950tz","789.2999999967287"," ","1","5"
"","html-button-response","7","30585","0.0-7.0","xn8mq950tz","957.4000000066007"," ","1","6"
"","html-button-response","8","31436","0.0-8.0","xn8mq950tz","847.69999999844"," ","0","8"
"","html-button-response","9","33241","0.0-9.0","xn8mq950tz","1802.7000000001863"," ","1","7"
"","html-button-response","10","34138","0.0-10.0","xn8mq950tz","893.6999999932596"," ","0","2"
"","html-button-response","11","35771","0.0-11.0","xn8mq950tz","1630.300000004354"," ","0","6"
"","html-button-response","12","36799","0.0-12.0","xn8mq950tz","1025.099999998929"," ","1","4"
"","html-button-response","13","38181","0.0-13.0","xn8mq950tz","1379.6999999976833"," ","0","9"
"","html-button-response","14","39535","0.0-14.0","xn8mq950tz","1351.2999999948079"," ","1","8"
"","html-button-response","15","40592","0.0-15.0","xn8mq950tz","1054.4000000008964"," ","1","5"
"","html-button-response","16","41995","0.0-16.0","xn8mq950tz","1399.7999999992317"," ","0","7"
"","html-button-response","17","42951","0.0-17.0","xn8mq950tz","953.9000000004307"," ","1","9"
"","html-button-response","18","44407","0.0-18.0","xn8mq950tz","1452.7000000016415"," ","0","7"
"","html-button-response","19","45627","0.0-19.0","xn8mq950tz","1217.1999999991385"," ","0","5"
"","html-button-response","20","47175","0.0-20.0","xn8mq950tz","1545.299999997951"," ","1","9"
"","html-button-response","21","48785","0.0-21.0","xn8mq950tz","1607.7000000004773"," ","1","4"
"","html-button-response","22","50139","0.0-22.0","xn8mq950tz","1350.800000000163"," ","0","8"
"","html-button-response","23","51006","0.0-23.0","xn8mq950tz","864.6000000007916"," ","1","2"
"","html-button-response","24","52064","0.0-24.0","xn8mq950tz","1055.2999999999884"," ","0","4"
"","html-button-response","25","53261","0.0-25.0","xn8mq950tz","1194.7000000000116"," ","1","6"
"","html-button-response","26","54293","0.0-26.0","xn8mq950tz","1028.9000000047963"," ","0","8"
"","html-button-response","27","55163","0.0-27.0","xn8mq950tz","867.1000000031199"," ","1","9"
"","html-button-response","28","58352","0.0-28.0","xn8mq950tz","3186.3999999986845"," ","1","5"
"","html-button-response","29","60419","0.0-29.0","xn8mq950tz","2045.5999999976484"," ","0","6"
"","html-button-response","30","61482","0.0-30.0","xn8mq950tz","1059.9999999976717"," ","1","7"
"","html-button-response","31","63758","0.0-31.0","xn8mq950tz","2272.899999996298"," ","1","6"
"","html-button-response","32","64550","0.0-32.0","xn8mq950tz","789.1000000017812"," ","0","4"
"","html-button-response","33","65973","0.0-33.0","xn8mq950tz","1420.0999999957276"," ","0","2"
"","html-button-response","34","67233","0.0-34.0","xn8mq950tz","1257.2000000000116"," ","0","9"
"","html-button-response","35","68182","0.0-35.0","xn8mq950tz","946.4000000007218"," ","1","5"
"","html-button-response","36","68902","0.0-36.0","xn8mq950tz","717.1999999991385"," ","0","8"
"","html-button-response","37","70771","0.0-37.0","xn8mq950tz","1866.3999999989755"," ","1","3"
"","html-button-response","38","71490","0.0-38.0","xn8mq950tz","715.7000000006519"," ","0","6"
"","html-button-response","39","72593","0.0-39.0","xn8mq950tz","1100.5999999979394"," ","0","9"
"","html-button-response","40","73527","0.0-40.0","xn8mq950tz","930.5999999996857"," ","1","8"
"","html-button-response","41","74329","0.0-41.0","xn8mq950tz","800.199999997858"," ","0","6"
"","html-button-response","42","75359","0.0-42.0","xn8mq950tz","1026.4999999999418"," ","0","5"
"","html-button-response","43","77076","0.0-43.0","xn8mq950tz","1713.8000000049942"," ","0","7"
"","html-button-response","44","77899","0.0-44.0","xn8mq950tz","820.2999999994063"," ","1","5"
"","html-button-response","45","79162","0.0-45.0","xn8mq950tz","1260.999999998603"," ","1","9"
"","html-button-response","46","80151","0.0-46.0","xn8mq950tz","986.3999999943189"," ","0","4"
"","html-button-response","47","81348","0.0-47.0","xn8mq950tz","1193.5999999986961"," ","0","9"
"","html-button-response","48","82552","0.0-48.0","xn8mq950tz","1201.600000000326"," ","1","8"
"","html-button-response","49","83355","0.0-49.0","xn8mq950tz","799.8000000006869"," ","0","3"
"","html-button-response","50","84930","0.0-50.0","xn8mq950tz","1572.599999999511"," ","1","6"
"","html-button-response","51","85762","0.0-51.0","xn8mq950tz","828.9000000004307"," ","0","5"
"","html-button-response","52","86908","0.0-52.0","xn8mq950tz","1143.5999999957858"," ","1","8"
"","html-button-response","53","88073","0.0-53.0","xn8mq950tz","1162.1999999988475"," ","0","5"
"","html-button-response","54","89291","0.0-54.0","xn8mq950tz","1214.80000000156"," ","1","2"
"","html-button-response","55","91794","0.0-55.0","xn8mq950tz","2499.7999999977765"," ","0","7"
"","html-button-response","56","93254","0.0-56.0","xn8mq950tz","1457.0000000021537"," ","1","9"
"","html-button-response","57","94211","0.0-57.0","xn8mq950tz","953.9999999979045"," ","0","8"
"","html-button-response","58","98095","0.0-58.0","xn8mq950tz","3881.099999998696"," ","0","6"
"","html-button-response","59","98391","0.0-59.0","xn8mq950tz","294.0999999991618"," ","0","4"
"","html-button-response","60","101569","0.0-60.0","xn8mq950tz","3175.200000005134"," ","1","3"
"true","fullscreen","61","102573","0.0-61.0","xn8mq950tz","","","",""
