[{"success":true,"trial_type":"fullscreen","trial_index":0,"time_elapsed":1463368,"internal_node_id":"0.0-0.0","ID":"a4yfnpm6y3"},{"results":[{"id":"train-images","shape":"1","outlier_type":"NA","choice":5,"outlierPosition":5,"success":true,"majorityOfMostRegularShapes":"NA","rt":2878.499999998894,"rot1":5,"rot2":25,"rot3":-15,"rot4":15,"rot5":-25,"rot6":-5,"dil1":0.875,"dil2":1.075,"dil3":0.975,"dil4":0.925,"dil5":1.125,"dil6":1.025,"rots":[5,25,-15,15,-25,-5],"dils":[0.875,1.075,0.975,0.925,1.125,1.025],"loop_number":1,"everTouched":null},{"id":"train-images","shape":"3","outlier_type":"NA","choice":3,"outlierPosition":3,"success":true,"majorityOfMostRegularShapes":"NA","rt":2026.0999999954947,"rot1":25,"rot2":15,"rot3":-5,"rot4":5,"rot5":-25,"rot6":-15,"dil1":0.925,"dil2":1.025,"dil3":1.075,"dil4":0.975,"dil5":1.125,"dil6":0.875,"rots":[25,15,-5,5,-25,-15],"dils":[0.925,1.025,1.075,0.975,1.125,0.875],"loop_number":1,"everTouched":null},{"id":"train-images","shape":"4","outlier_type":"NA","choice":4,"outlierPosition":4,"success":true,"majorityOfMostRegularShapes":"NA","rt":3811.200000003737,"rot1":15,"rot2":-5,"rot3":-25,"rot4":-15,"rot5":5,"rot6":25,"dil1":0.925,"dil2":0.975,"dil3":1.125,"dil4":1.075,"dil5":0.875,"dil6":1.025,"rots":[15,-5,-25,-15,5,25],"dils":[0.925,0.975,1.125,1.075,0.875,1.025],"loop_number":1,"everTouched":null},{"id":"train-images","shape":"8","outlier_type":"NA","choice":2,"outlierPosition":2,"success":true,"majorityOfMostRegularShapes":"NA","rt":2671.7999999964377,"rot1":15,"rot2":-5,"rot3":25,"rot4":-15,"rot5":5,"rot6":-25,"dil1":1.025,"dil2":0.875,"dil3":1.125,"dil4":0.975,"dil5":1.075,"dil6":0.925,"rots":[15,-5,25,-15,5,-25],"dils":[1.025,0.875,1.125,0.975,1.075,0.925],"loop_number":1,"everTouched":null},{"id":"train-images","shape":"2","outlier_type":"NA","choice":2,"outlierPosition":2,"success":true,"majorityOfMostRegularShapes":"NA","rt":1199.5999999999185,"rot1":-15,"rot2":25,"rot3":15,"rot4":-5,"rot5":-25,"rot6":5,"dil1":0.975,"dil2":1.025,"dil3":0.875,"dil4":1.125,"dil5":0.925,"dil6":1.075,"rots":[-15,25,15,-5,-25,5],"dils":[0.975,1.025,0.875,1.125,0.925,1.075],"loop_number":1,"everTouched":null},{"id":"train-images","shape":"6","outlier_type":"NA","choice":5,"outlierPosition":5,"success":true,"majorityOfMostRegularShapes":"NA","rt":1714.5000000018626,"rot1":-5,"rot2":15,"rot3":5,"rot4":-15,"rot5":-25,"rot6":25,"dil1":0.925,"dil2":1.125,"dil3":0.975,"dil4":0.875,"dil5":1.025,"dil6":1.075,"rots":[-5,15,5,-15,-25,25],"dils":[0.925,1.125,0.975,0.875,1.025,1.075],"loop_number":1,"everTouched":null},{"id":"train-images","shape":"9","outlier_type":"NA","choice":2,"outlierPosition":2,"success":true,"majorityOfMostRegularShapes":"NA","rt":1447.20000000234,"rot1":-15,"rot2":25,"rot3":-25,"rot4":-5,"rot5":5,"rot6":15,"dil1":0.975,"dil2":1.075,"dil3":0.875,"dil4":1.125,"dil5":0.925,"dil6":1.025,"rots":[-15,25,-25,-5,5,15],"dils":[0.975,1.075,0.875,1.125,0.925,1.025],"loop_number":1,"everTouched":null},{"id":"train-images","shape":"7","outlier_type":"NA","choice":2,"outlierPosition":2,"success":true,"majorityOfMostRegularShapes":"NA","rt":1143.4000000008382,"rot1":-5,"rot2":15,"rot3":-25,"rot4":-15,"rot5":5,"rot6":25,"dil1":0.875,"dil2":0.925,"dil3":1.125,"dil4":1.075,"dil5":1.025,"dil6":0.975,"rots":[-5,15,-25,-15,5,25],"dils":[0.875,0.925,1.125,1.075,1.025,0.975],"loop_number":1,"everTouched":null},{"id":"train-images","shape":"10","outlier_type":"NA","choice":0,"outlierPosition":0,"success":true,"majorityOfMostRegularShapes":"NA","rt":1701.8000000025495,"rot1":-5,"rot2":25,"rot3":-25,"rot4":15,"rot5":-15,"rot6":5,"dil1":0.975,"dil2":0.875,"dil3":1.025,"dil4":1.125,"dil5":1.075,"dil6":0.925,"rots":[-5,25,-25,15,-15,5],"dils":[0.975,0.875,1.025,1.125,1.075,0.925],"loop_number":1,"everTouched":null},{"id":"train-images","shape":"5","outlier_type":"NA","choice":4,"outlierPosition":4,"success":true,"majorityOfMostRegularShapes":"NA","rt":976.20000000461,"rot1":-5,"rot2":25,"rot3":5,"rot4":-15,"rot5":15,"rot6":-25,"dil1":0.975,"dil2":1.075,"dil3":1.025,"dil4":0.875,"dil5":1.125,"dil6":0.925,"rots":[-5,25,5,-15,15,-25],"dils":[0.975,1.075,1.025,0.875,1.125,0.925],"loop_number":1,"everTouched":null}],"trial_type":"oddball-grid-image","trial_index":1,"time_elapsed":1520148,"internal_node_id":"0.0-1.0","ID":"a4yfnpm6y3"},{"results":[{"id":"train","shape":null,"outlier_type":null,"choice":1,"outlierPosition":1,"success":true,"majorityOfMostRegularShapes":null,"rt":1657.2999999989406,"rot1":-15,"rot2":-5,"rot3":-25,"rot4":15,"rot5":5,"rot6":25,"dil1":1.025,"dil2":0.925,"dil3":0.875,"dil4":0.975,"dil5":1.075,"dil6":1.125,"rots":[-15,-5,-25,15,5,25],"dils":[1.025,0.925,0.875,0.975,1.075,1.125],"loop_number":1,"everTouched":null},{"id":"train","shape":null,"outlier_type":null,"choice":2,"outlierPosition":2,"success":true,"majorityOfMostRegularShapes":null,"rt":1538.3999999976368,"rot1":5,"rot2":25,"rot3":-25,"rot4":-15,"rot5":15,"rot6":-5,"dil1":0.925,"dil2":0.875,"dil3":1.075,"dil4":0.975,"dil5":1.025,"dil6":1.125,"rots":[5,25,-25,-15,15,-5],"dils":[0.925,0.875,1.075,0.975,1.025,1.125],"loop_number":1,"everTouched":null},{"id":"train","shape":null,"outlier_type":null,"choice":0,"outlierPosition":0,"success":true,"majorityOfMostRegularShapes":null,"rt":2064.3999999956577,"rot1":-15,"rot2":-25,"rot3":-5,"rot4":5,"rot5":25,"rot6":15,"dil1":1.125,"dil2":0.975,"dil3":0.925,"dil4":0.875,"dil5":1.025,"dil6":1.075,"rots":[-15,-25,-5,5,25,15],"dils":[1.125,0.975,0.925,0.875,1.025,1.075],"loop_number":1,"everTouched":null},{"id":"train","shape":null,"outlier_type":null,"choice":1,"outlierPosition":1,"success":true,"majorityOfMostRegularShapes":null,"rt":989.400000005844,"rot1":15,"rot2":25,"rot3":-15,"rot4":5,"rot5":-25,"rot6":-5,"dil1":1.075,"dil2":1.025,"dil3":0.975,"dil4":0.925,"dil5":0.875,"dil6":1.125,"rots":[15,25,-15,5,-25,-5],"dils":[1.075,1.025,0.975,0.925,0.875,1.125],"loop_number":1,"everTouched":null},{"id":"train","shape":null,"outlier_type":null,"choice":5,"outlierPosition":5,"success":true,"majorityOfMostRegularShapes":null,"rt":1192.3999999999069,"rot1":15,"rot2":5,"rot3":-25,"rot4":25,"rot5":-5,"rot6":-15,"dil1":1.025,"dil2":1.125,"dil3":0.975,"dil4":0.925,"dil5":1.075,"dil6":0.875,"rots":[15,5,-25,25,-5,-15],"dils":[1.025,1.125,0.975,0.925,1.075,0.875],"loop_number":1,"everTouched":null},{"id":"train","shape":null,"outlier_type":null,"choice":0,"outlierPosition":0,"success":true,"majorityOfMostRegularShapes":null,"rt":2586.0000000029686,"rot1":15,"rot2":5,"rot3":25,"rot4":-25,"rot5":-5,"rot6":-15,"dil1":0.975,"dil2":1.075,"dil3":1.025,"dil4":0.925,"dil5":0.875,"dil6":1.125,"rots":[15,5,25,-25,-5,-15],"dils":[0.975,1.075,1.025,0.925,0.875,1.125],"loop_number":1,"everTouched":null}],"desiredDistance":0.3,"trial_type":"oddball-grid-easy","trial_index":2,"time_elapsed":1540431,"internal_node_id":"0.0-2.0","ID":"a4yfnpm6y3"},{"results":[{"id":"test","shape":"losange","outlier_type":2,"choice":5,"outlierPosition":5,"success":true,"majorityOfMostRegularShapes":true,"rt":2616.8000000034226,"rot1":-5,"rot2":-25,"rot3":25,"rot4":5,"rot5":15,"rot6":-15,"dil1":0.925,"dil2":1.125,"dil3":0.975,"dil4":1.025,"dil5":0.875,"dil6":1.075,"rots":[-5,-25,25,5,15,-15],"dils":[0.925,1.125,0.975,1.025,0.875,1.075],"loop_number":"NA","everTouched":null},{"id":"test","shape":"parallelogram","outlier_type":3,"choice":1,"outlierPosition":1,"success":true,"majorityOfMostRegularShapes":true,"rt":2997.5999999951455,"rot1":15,"rot2":25,"rot3":-25,"rot4":5,"rot5":-5,"rot6":-15,"dil1":0.925,"dil2":0.975,"dil3":1.075,"dil4":1.125,"dil5":0.875,"dil6":1.025,"rots":[15,25,-25,5,-5,-15],"dils":[0.925,0.975,1.075,1.125,0.875,1.025],"loop_number":"NA","everTouched":null},{"id":"test","shape":"trapezoid","outlier_type":2,"choice":1,"outlierPosition":0,"success":false,"majorityOfMostRegularShapes":true,"rt":5295.500000000175,"rot1":15,"rot2":5,"rot3":-25,"rot4":-5,"rot5":-15,"rot6":25,"dil1":0.975,"dil2":1.125,"dil3":1.025,"dil4":0.925,"dil5":0.875,"dil6":1.075,"rots":[15,5,-25,-5,-15,25],"dils":[0.975,1.125,1.025,0.925,0.875,1.075],"loop_number":"NA","everTouched":null},{"id":"test","shape":"parallelogram","outlier_type":0,"choice":0,"outlierPosition":3,"success":false,"majorityOfMostRegularShapes":true,"rt":3834.8000000041793,"rot1":-5,"rot2":-25,"rot3":25,"rot4":15,"rot5":5,"rot6":-15,"dil1":0.875,"dil2":1.025,"dil3":1.075,"dil4":1.125,"dil5":0.925,"dil6":0.975,"rots":[-5,-25,25,15,5,-15],"dils":[0.875,1.025,1.075,1.125,0.925,0.975],"loop_number":"NA","everTouched":null},{"id":"test","shape":"kite","outlier_type":3,"choice":2,"outlierPosition":2,"success":true,"majorityOfMostRegularShapes":true,"rt":4459.000000002561,"rot1":15,"rot2":-5,"rot3":5,"rot4":25,"rot5":-15,"rot6":-25,"dil1":0.975,"dil2":0.925,"dil3":1.125,"dil4":1.025,"dil5":1.075,"dil6":0.875,"rots":[15,-5,5,25,-15,-25],"dils":[0.975,0.925,1.125,1.025,1.075,0.875],"loop_number":"NA","everTouched":null},{"id":"test","shape":"rustedHinge","outlier_type":0,"choice":5,"outlierPosition":3,"success":false,"majorityOfMostRegularShapes":true,"rt":3631.699999998091,"rot1":5,"rot2":-25,"rot3":15,"rot4":25,"rot5":-15,"rot6":-5,"dil1":0.975,"dil2":1.075,"dil3":1.025,"dil4":0.925,"dil5":1.125,"dil6":0.875,"rots":[5,-25,15,25,-15,-5],"dils":[0.975,1.075,1.025,0.925,1.125,0.875],"loop_number":"NA","everTouched":null},{"id":"test","shape":"square","outlier_type":3,"choice":2,"outlierPosition":2,"success":true,"majorityOfMostRegularShapes":true,"rt":1834.499999997206,"rot1":-5,"rot2":25,"rot3":5,"rot4":-25,"rot5":-15,"rot6":15,"dil1":0.875,"dil2":0.925,"dil3":1.125,"dil4":1.025,"dil5":1.075,"dil6":0.975,"rots":[-5,25,5,-25,-15,15],"dils":[0.875,0.925,1.125,1.025,1.075,0.975],"loop_number":"NA","everTouched":null},{"id":"test","shape":"trapezoid","outlier_type":0,"choice":0,"outlierPosition":4,"success":false,"majorityOfMostRegularShapes":true,"rt":7557.89999999979,"rot1":-25,"rot2":25,"rot3":15,"rot4":-5,"rot5":-15,"rot6":5,"dil1":0.975,"dil2":1.125,"dil3":1.075,"dil4":0.925,"dil5":1.025,"dil6":0.875,"rots":[-25,25,15,-5,-15,5],"dils":[0.975,1.125,1.075,0.925,1.025,0.875],"loop_number":"NA","everTouched":null},{"id":"test","shape":"parallelogram","outlier_type":2,"choice":2,"outlierPosition":2,"success":true,"majorityOfMostRegularShapes":true,"rt":4053.8999999989755,"rot1":-5,"rot2":5,"rot3":-15,"rot4":-25,"rot5":25,"rot6":15,"dil1":0.975,"dil2":1.075,"dil3":1.125,"dil4":1.025,"dil5":0.875,"dil6":0.925,"rots":[-5,5,-15,-25,25,15],"dils":[0.975,1.075,1.125,1.025,0.875,0.925],"loop_number":"NA","everTouched":null},{"id":"test","shape":"random","outlier_type":3,"choice":3,"outlierPosition":3,"success":true,"majorityOfMostRegularShapes":true,"rt":3817.5999999948544,"rot1":15,"rot2":-5,"rot3":-15,"rot4":25,"rot5":5,"rot6":-25,"dil1":1.125,"dil2":1.025,"dil3":0.975,"dil4":1.075,"dil5":0.925,"dil6":0.875,"rots":[15,-5,-15,25,5,-25],"dils":[1.125,1.025,0.975,1.075,0.925,0.875],"loop_number":"NA","everTouched":null},{"id":"test","shape":"kite","outlier_type":2,"choice":5,"outlierPosition":2,"success":false,"majorityOfMostRegularShapes":true,"rt":3679.4000000008964,"rot1":15,"rot2":25,"rot3":5,"rot4":-5,"rot5":-25,"rot6":-15,"dil1":0.925,"dil2":1.075,"dil3":1.125,"dil4":0.875,"dil5":0.975,"dil6":1.025,"rots":[15,25,5,-5,-25,-15],"dils":[0.925,1.075,1.125,0.875,0.975,1.025],"loop_number":"NA","everTouched":null},{"id":"test","shape":"hinge","outlier_type":3,"choice":1,"outlierPosition":5,"success":false,"majorityOfMostRegularShapes":true,"rt":2190.3000000020256,"rot1":15,"rot2":25,"rot3":5,"rot4":-15,"rot5":-25,"rot6":-5,"dil1":1.125,"dil2":0.975,"dil3":1.025,"dil4":0.875,"dil5":1.075,"dil6":0.925,"rots":[15,25,5,-15,-25,-5],"dils":[1.125,0.975,1.025,0.875,1.075,0.925],"loop_number":"NA","everTouched":null},{"id":"test","shape":"isoTrapezoid","outlier_type":0,"choice":2,"outlierPosition":2,"success":true,"majorityOfMostRegularShapes":true,"rt":3392.3999999969965,"rot1":-5,"rot2":-25,"rot3":25,"rot4":-15,"rot5":15,"rot6":5,"dil1":1.025,"dil2":1.125,"dil3":0.975,"dil4":1.075,"dil5":0.875,"dil6":0.925,"rots":[-5,-25,25,-15,15,5],"dils":[1.025,1.125,0.975,1.075,0.875,0.925],"loop_number":"NA","everTouched":null},{"id":"test","shape":"rectangle","outlier_type":1,"choice":1,"outlierPosition":1,"success":true,"majorityOfMostRegularShapes":true,"rt":2957.299999994575,"rot1":25,"rot2":-15,"rot3":-5,"rot4":5,"rot5":15,"rot6":-25,"dil1":1.125,"dil2":1.075,"dil3":0.875,"dil4":0.925,"dil5":1.025,"dil6":0.975,"rots":[25,-15,-5,5,15,-25],"dils":[1.125,1.075,0.875,0.925,1.025,0.975],"loop_number":"NA","everTouched":null},{"id":"test","shape":"hinge","outlier_type":2,"choice":5,"outlierPosition":5,"success":true,"majorityOfMostRegularShapes":true,"rt":2328.1999999962864,"rot1":15,"rot2":5,"rot3":25,"rot4":-25,"rot5":-5,"rot6":-15,"dil1":0.975,"dil2":1.025,"dil3":0.925,"dil4":1.125,"dil5":1.075,"dil6":0.875,"rots":[15,5,25,-25,-5,-15],"dils":[0.975,1.025,0.925,1.125,1.075,0.875],"loop_number":"NA","everTouched":null},{"id":"test","shape":"random","outlier_type":1,"choice":2,"outlierPosition":2,"success":true,"majorityOfMostRegularShapes":true,"rt":3278.4000000028755,"rot1":5,"rot2":25,"rot3":-5,"rot4":15,"rot5":-15,"rot6":-25,"dil1":0.875,"dil2":1.125,"dil3":1.075,"dil4":0.975,"dil5":0.925,"dil6":1.025,"rots":[5,25,-5,15,-15,-25],"dils":[0.875,1.125,1.075,0.975,0.925,1.025],"loop_number":"NA","everTouched":null},{"id":"test","shape":"trapezoid","outlier_type":3,"choice":5,"outlierPosition":2,"success":false,"majorityOfMostRegularShapes":true,"rt":1213.9999999999418,"rot1":-15,"rot2":15,"rot3":-25,"rot4":25,"rot5":-5,"rot6":5,"dil1":1.025,"dil2":0.875,"dil3":1.125,"dil4":1.075,"dil5":0.925,"dil6":0.975,"rots":[-15,15,-25,25,-5,5],"dils":[1.025,0.875,1.125,1.075,0.925,0.975],"loop_number":"NA","everTouched":null},{"id":"test","shape":"kite","outlier_type":0,"choice":2,"outlierPosition":1,"success":false,"majorityOfMostRegularShapes":true,"rt":1048.5999999946216,"rot1":-15,"rot2":5,"rot3":-5,"rot4":-25,"rot5":25,"rot6":15,"dil1":0.925,"dil2":0.975,"dil3":1.075,"dil4":0.875,"dil5":1.025,"dil6":1.125,"rots":[-15,5,-5,-25,25,15],"dils":[0.925,0.975,1.075,0.875,1.025,1.125],"loop_number":"NA","everTouched":null},{"id":"test","shape":"parallelogram","outlier_type":1,"choice":2,"outlierPosition":2,"success":true,"majorityOfMostRegularShapes":true,"rt":4465.9000000028755,"rot1":25,"rot2":-25,"rot3":-5,"rot4":-15,"rot5":5,"rot6":15,"dil1":0.975,"dil2":0.925,"dil3":1.025,"dil4":0.875,"dil5":1.075,"dil6":1.125,"rots":[25,-25,-5,-15,5,15],"dils":[0.975,0.925,1.025,0.875,1.075,1.125],"loop_number":"NA","everTouched":null},{"id":"test","shape":"rightKite","outlier_type":0,"choice":5,"outlierPosition":3,"success":false,"majorityOfMostRegularShapes":true,"rt":6466.7999999946915,"rot1":15,"rot2":25,"rot3":5,"rot4":-15,"rot5":-5,"rot6":-25,"dil1":1.075,"dil2":0.925,"dil3":0.975,"dil4":0.875,"dil5":1.025,"dil6":1.125,"rots":[15,25,5,-15,-5,-25],"dils":[1.075,0.925,0.975,0.875,1.025,1.125],"loop_number":"NA","everTouched":null},{"id":"test","shape":"rustedHinge","outlier_type":2,"choice":2,"outlierPosition":5,"success":false,"majorityOfMostRegularShapes":true,"rt":4811.700000005658,"rot1":5,"rot2":-25,"rot3":-5,"rot4":-15,"rot5":15,"rot6":25,"dil1":1.025,"dil2":0.875,"dil3":1.125,"dil4":1.075,"dil5":0.925,"dil6":0.975,"rots":[5,-25,-5,-15,15,25],"dils":[1.025,0.875,1.125,1.075,0.925,0.975],"loop_number":"NA","everTouched":null},{"id":"test","shape":"rightKite","outlier_type":1,"choice":4,"outlierPosition":3,"success":false,"majorityOfMostRegularShapes":true,"rt":7920.299999997951,"rot1":25,"rot2":5,"rot3":-15,"rot4":-25,"rot5":15,"rot6":-5,"dil1":1.125,"dil2":1.025,"dil3":0.925,"dil4":1.075,"dil5":0.975,"dil6":0.875,"rots":[25,5,-15,-25,15,-5],"dils":[1.125,1.025,0.925,1.075,0.975,0.875],"loop_number":"NA","everTouched":null},{"id":"test","shape":"isoTrapezoid","outlier_type":3,"choice":3,"outlierPosition":3,"success":true,"majorityOfMostRegularShapes":true,"rt":3476.600000001781,"rot1":-5,"rot2":15,"rot3":25,"rot4":-15,"rot5":-25,"rot6":5,"dil1":0.925,"dil2":1.025,"dil3":1.125,"dil4":0.875,"dil5":0.975,"dil6":1.075,"rots":[-5,15,25,-15,-25,5],"dils":[0.925,1.025,1.125,0.875,0.975,1.075],"loop_number":"NA","everTouched":null},{"id":"test","shape":"square","outlier_type":1,"choice":2,"outlierPosition":2,"success":true,"majorityOfMostRegularShapes":true,"rt":1558.0000000045402,"rot1":-25,"rot2":-5,"rot3":25,"rot4":15,"rot5":-15,"rot6":5,"dil1":1.025,"dil2":1.075,"dil3":0.975,"dil4":0.925,"dil5":0.875,"dil6":1.125,"rots":[-25,-5,25,15,-15,5],"dils":[1.025,1.075,0.975,0.925,0.875,1.125],"loop_number":"NA","everTouched":null},{"id":"test","shape":"losange","outlier_type":0,"choice":1,"outlierPosition":5,"success":false,"majorityOfMostRegularShapes":true,"rt":11590.700000000652,"rot1":5,"rot2":-25,"rot3":-15,"rot4":-5,"rot5":15,"rot6":25,"dil1":1.125,"dil2":0.875,"dil3":1.075,"dil4":1.025,"dil5":0.975,"dil6":0.925,"rots":[5,-25,-15,-5,15,25],"dils":[1.125,0.875,1.075,1.025,0.975,0.925],"loop_number":"NA","everTouched":null},{"id":"test","shape":"kite","outlier_type":1,"choice":5,"outlierPosition":0,"success":false,"majorityOfMostRegularShapes":true,"rt":3301.3999999966472,"rot1":5,"rot2":-5,"rot3":15,"rot4":-15,"rot5":-25,"rot6":25,"dil1":1.125,"dil2":0.875,"dil3":1.075,"dil4":1.025,"dil5":0.975,"dil6":0.925,"rots":[5,-5,15,-15,-25,25],"dils":[1.125,0.875,1.075,1.025,0.975,0.925],"loop_number":"NA","everTouched":null},{"id":"test","shape":"rectangle","outlier_type":0,"choice":1,"outlierPosition":1,"success":true,"majorityOfMostRegularShapes":true,"rt":3400.3000000011525,"rot1":15,"rot2":25,"rot3":-25,"rot4":-5,"rot5":-15,"rot6":5,"dil1":1.025,"dil2":1.125,"dil3":1.075,"dil4":0.975,"dil5":0.875,"dil6":0.925,"rots":[15,25,-25,-5,-15,5],"dils":[1.025,1.125,1.075,0.975,0.875,0.925],"loop_number":"NA","everTouched":null},{"id":"test","shape":"rustedHinge","outlier_type":1,"choice":2,"outlierPosition":2,"success":true,"majorityOfMostRegularShapes":true,"rt":4744.400000003225,"rot1":25,"rot2":5,"rot3":-15,"rot4":-25,"rot5":15,"rot6":-5,"dil1":1.075,"dil2":0.975,"dil3":0.925,"dil4":1.125,"dil5":0.875,"dil6":1.025,"rots":[25,5,-15,-25,15,-5],"dils":[1.075,0.975,0.925,1.125,0.875,1.025],"loop_number":"NA","everTouched":null},{"id":"test","shape":"random","outlier_type":2,"choice":4,"outlierPosition":4,"success":true,"majorityOfMostRegularShapes":true,"rt":4083.5000000006403,"rot1":-5,"rot2":15,"rot3":25,"rot4":5,"rot5":-25,"rot6":-15,"dil1":1.075,"dil2":0.975,"dil3":1.125,"dil4":0.925,"dil5":1.025,"dil6":0.875,"rots":[-5,15,25,5,-25,-15],"dils":[1.075,0.975,1.125,0.925,1.025,0.875],"loop_number":"NA","everTouched":null},{"id":"test","shape":"losange","outlier_type":1,"choice":4,"outlierPosition":4,"success":true,"majorityOfMostRegularShapes":true,"rt":2253.100000001723,"rot1":-25,"rot2":-15,"rot3":-5,"rot4":25,"rot5":5,"rot6":15,"dil1":0.975,"dil2":1.125,"dil3":1.075,"dil4":0.925,"dil5":0.875,"dil6":1.025,"rots":[-25,-15,-5,25,5,15],"dils":[0.975,1.125,1.075,0.925,0.875,1.025],"loop_number":"NA","everTouched":null},{"id":"test","shape":"isoTrapezoid","outlier_type":2,"choice":5,"outlierPosition":2,"success":false,"majorityOfMostRegularShapes":true,"rt":3001.70000000071,"rot1":-25,"rot2":-15,"rot3":15,"rot4":5,"rot5":25,"rot6":-5,"dil1":0.925,"dil2":1.025,"dil3":1.125,"dil4":1.075,"dil5":0.975,"dil6":0.875,"rots":[-25,-15,15,5,25,-5],"dils":[0.925,1.025,1.125,1.075,0.975,0.875],"loop_number":"NA","everTouched":null},{"id":"test","shape":"random","outlier_type":0,"choice":3,"outlierPosition":2,"success":false,"majorityOfMostRegularShapes":true,"rt":3732.900000002701,"rot1":-25,"rot2":5,"rot3":25,"rot4":-5,"rot5":15,"rot6":-15,"dil1":1.125,"dil2":0.925,"dil3":0.875,"dil4":1.075,"dil5":1.025,"dil6":0.975,"rots":[-25,5,25,-5,15,-15],"dils":[1.125,0.925,0.875,1.075,1.025,0.975],"loop_number":"NA","everTouched":null},{"id":"test","shape":"square","outlier_type":2,"choice":2,"outlierPosition":2,"success":true,"majorityOfMostRegularShapes":true,"rt":1584.100000000035,"rot1":15,"rot2":-15,"rot3":-25,"rot4":5,"rot5":25,"rot6":-5,"dil1":0.975,"dil2":1.125,"dil3":0.925,"dil4":0.875,"dil5":1.025,"dil6":1.075,"rots":[15,-15,-25,5,25,-5],"dils":[0.975,1.125,0.925,0.875,1.025,1.075],"loop_number":"NA","everTouched":null},{"id":"test","shape":"rightKite","outlier_type":3,"choice":4,"outlierPosition":5,"success":false,"majorityOfMostRegularShapes":true,"rt":5829.499999999825,"rot1":-15,"rot2":-5,"rot3":15,"rot4":-25,"rot5":25,"rot6":5,"dil1":1.075,"dil2":0.975,"dil3":1.125,"dil4":1.025,"dil5":0.875,"dil6":0.925,"rots":[-15,-5,15,-25,25,5],"dils":[1.075,0.975,1.125,1.025,0.875,0.925],"loop_number":"NA","everTouched":null},{"id":"test","shape":"isoTrapezoid","outlier_type":1,"choice":5,"outlierPosition":2,"success":false,"majorityOfMostRegularShapes":true,"rt":11669.79999999603,"rot1":5,"rot2":-5,"rot3":15,"rot4":-25,"rot5":-15,"rot6":25,"dil1":1.025,"dil2":1.075,"dil3":1.125,"dil4":0.975,"dil5":0.925,"dil6":0.875,"rots":[5,-5,15,-25,-15,25],"dils":[1.025,1.075,1.125,0.975,0.925,0.875],"loop_number":"NA","everTouched":null},{"id":"test","shape":"square","outlier_type":0,"choice":0,"outlierPosition":1,"success":false,"majorityOfMostRegularShapes":true,"rt":2958.100000003469,"rot1":-15,"rot2":-5,"rot3":-25,"rot4":25,"rot5":5,"rot6":15,"dil1":0.875,"dil2":1.075,"dil3":1.025,"dil4":0.925,"dil5":0.975,"dil6":1.125,"rots":[-15,-5,-25,25,5,15],"dils":[0.875,1.075,1.025,0.925,0.975,1.125],"loop_number":"NA","everTouched":null},{"id":"test","shape":"losange","outlier_type":3,"choice":1,"outlierPosition":2,"success":false,"majorityOfMostRegularShapes":true,"rt":1884.699999995064,"rot1":-25,"rot2":25,"rot3":-5,"rot4":15,"rot5":5,"rot6":-15,"dil1":1.125,"dil2":0.925,"dil3":1.075,"dil4":0.875,"dil5":1.025,"dil6":0.975,"rots":[-25,25,-5,15,5,-15],"dils":[1.125,0.925,1.075,0.875,1.025,0.975],"loop_number":"NA","everTouched":null},{"id":"test","shape":"rightKite","outlier_type":2,"choice":4,"outlierPosition":4,"success":true,"majorityOfMostRegularShapes":true,"rt":4117.700000002515,"rot1":-5,"rot2":15,"rot3":25,"rot4":5,"rot5":-25,"rot6":-15,"dil1":1.025,"dil2":0.875,"dil3":1.075,"dil4":0.975,"dil5":1.125,"dil6":0.925,"rots":[-5,15,25,5,-25,-15],"dils":[1.025,0.875,1.075,0.975,1.125,0.925],"loop_number":"NA","everTouched":null},{"id":"test","shape":"rectangle","outlier_type":3,"choice":1,"outlierPosition":5,"success":false,"majorityOfMostRegularShapes":true,"rt":2217.000000004191,"rot1":-25,"rot2":-15,"rot3":25,"rot4":5,"rot5":15,"rot6":-5,"dil1":1.075,"dil2":0.875,"dil3":1.025,"dil4":1.125,"dil5":0.975,"dil6":0.925,"rots":[-25,-15,25,5,15,-5],"dils":[1.075,0.875,1.025,1.125,0.975,0.925],"loop_number":"NA","everTouched":null},{"id":"test","shape":"hinge","outlier_type":0,"choice":3,"outlierPosition":4,"success":false,"majorityOfMostRegularShapes":true,"rt":5133.699999998498,"rot1":5,"rot2":-15,"rot3":-25,"rot4":25,"rot5":15,"rot6":-5,"dil1":1.075,"dil2":0.925,"dil3":1.125,"dil4":0.975,"dil5":0.875,"dil6":1.025,"rots":[5,-15,-25,25,15,-5],"dils":[1.075,0.925,1.125,0.975,0.875,1.025],"loop_number":"NA","everTouched":null},{"id":"test","shape":"rustedHinge","outlier_type":3,"choice":1,"outlierPosition":3,"success":false,"majorityOfMostRegularShapes":true,"rt":3877.0000000004075,"rot1":-25,"rot2":25,"rot3":-5,"rot4":-15,"rot5":5,"rot6":15,"dil1":0.975,"dil2":0.875,"dil3":1.025,"dil4":1.125,"dil5":0.925,"dil6":1.075,"rots":[-25,25,-5,-15,5,15],"dils":[0.975,0.875,1.025,1.125,0.925,1.075],"loop_number":"NA","everTouched":null},{"id":"test","shape":"trapezoid","outlier_type":1,"choice":1,"outlierPosition":2,"success":false,"majorityOfMostRegularShapes":true,"rt":2665.8000000024913,"rot1":-15,"rot2":-25,"rot3":-5,"rot4":15,"rot5":25,"rot6":5,"dil1":0.975,"dil2":1.125,"dil3":1.075,"dil4":0.875,"dil5":0.925,"dil6":1.025,"rots":[-15,-25,-5,15,25,5],"dils":[0.975,1.125,1.075,0.875,0.925,1.025],"loop_number":"NA","everTouched":null},{"id":"test","shape":"rectangle","outlier_type":2,"choice":1,"outlierPosition":1,"success":true,"majorityOfMostRegularShapes":true,"rt":1499.3000000031316,"rot1":-15,"rot2":-5,"rot3":-25,"rot4":15,"rot5":25,"rot6":5,"dil1":1.125,"dil2":0.925,"dil3":1.025,"dil4":0.975,"dil5":0.875,"dil6":1.075,"rots":[-15,-5,-25,15,25,5],"dils":[1.125,0.925,1.025,0.975,0.875,1.075],"loop_number":"NA","everTouched":null},{"id":"test","shape":"hinge","outlier_type":1,"choice":4,"outlierPosition":2,"success":false,"majorityOfMostRegularShapes":true,"rt":1864.6999999982654,"rot1":-15,"rot2":5,"rot3":-5,"rot4":25,"rot5":-25,"rot6":15,"dil1":0.925,"dil2":1.075,"dil3":0.875,"dil4":1.025,"dil5":1.125,"dil6":0.975,"rots":[-15,5,-5,25,-25,15],"dils":[0.925,1.075,0.875,1.025,1.125,0.975],"loop_number":"NA","everTouched":null}],"desiredDistance":0.3,"trial_type":"oddball-grid","trial_index":3,"time_elapsed":1803628,"internal_node_id":"0.0-3.0","ID":"a4yfnpm6y3"},{"success":true,"trial_type":"fullscreen","trial_index":4,"time_elapsed":1805181,"internal_node_id":"0.0-4.0","ID":"a4yfnpm6y3"}]