[{"success":true,"trial_type":"fullscreen","trial_index":0,"time_elapsed":3916355,"internal_node_id":"0.0-0.0","ID":"p5xocdb5bx"},{"results":[{"id":"train-images","shape":"6","outlier_type":"NA","choice":2,"outlierPosition":2,"success":true,"majorityOfMostRegularShapes":"NA","rt":6456.500000000233,"rot1":-25,"rot2":-15,"rot3":25,"rot4":15,"rot5":5,"rot6":-5,"dil1":1.125,"dil2":0.925,"dil3":1.075,"dil4":1.025,"dil5":0.875,"dil6":0.975,"rots":[-25,-15,25,15,5,-5],"dils":[1.125,0.925,1.075,1.025,0.875,0.975],"loop_number":1,"everTouched":null},{"id":"train-images","shape":"2","outlier_type":"NA","choice":5,"outlierPosition":5,"success":true,"majorityOfMostRegularShapes":"NA","rt":2079.3999999950174,"rot1":5,"rot2":15,"rot3":-5,"rot4":-15,"rot5":25,"rot6":-25,"dil1":1.025,"dil2":0.975,"dil3":0.925,"dil4":1.075,"dil5":1.125,"dil6":0.875,"rots":[5,15,-5,-15,25,-25],"dils":[1.025,0.975,0.925,1.075,1.125,0.875],"loop_number":1,"everTouched":null},{"id":"train-images","shape":"10","outlier_type":"NA","choice":0,"outlierPosition":0,"success":true,"majorityOfMostRegularShapes":"NA","rt":2584.9999999990687,"rot1":5,"rot2":25,"rot3":-25,"rot4":15,"rot5":-5,"rot6":-15,"dil1":0.875,"dil2":1.125,"dil3":1.075,"dil4":0.975,"dil5":1.025,"dil6":0.925,"rots":[5,25,-25,15,-5,-15],"dils":[0.875,1.125,1.075,0.975,1.025,0.925],"loop_number":1,"everTouched":null},{"id":"train-images","shape":"4","outlier_type":"NA","choice":4,"outlierPosition":4,"success":true,"majorityOfMostRegularShapes":"NA","rt":2949.1999999955297,"rot1":-5,"rot2":25,"rot3":5,"rot4":-15,"rot5":15,"rot6":-25,"dil1":1.075,"dil2":0.875,"dil3":1.025,"dil4":0.925,"dil5":0.975,"dil6":1.125,"rots":[-5,25,5,-15,15,-25],"dils":[1.075,0.875,1.025,0.925,0.975,1.125],"loop_number":1,"everTouched":null},{"id":"train-images","shape":"5","outlier_type":"NA","choice":5,"outlierPosition":5,"success":true,"majorityOfMostRegularShapes":"NA","rt":2333.6000000054482,"rot1":5,"rot2":-15,"rot3":-25,"rot4":15,"rot5":-5,"rot6":25,"dil1":0.925,"dil2":1.125,"dil3":1.025,"dil4":0.875,"dil5":1.075,"dil6":0.975,"rots":[5,-15,-25,15,-5,25],"dils":[0.925,1.125,1.025,0.875,1.075,0.975],"loop_number":1,"everTouched":null},{"id":"train-images","shape":"9","outlier_type":"NA","choice":2,"outlierPosition":2,"success":true,"majorityOfMostRegularShapes":"NA","rt":2258.6999999985565,"rot1":-25,"rot2":-5,"rot3":15,"rot4":5,"rot5":25,"rot6":-15,"dil1":0.975,"dil2":1.125,"dil3":1.025,"dil4":1.075,"dil5":0.925,"dil6":0.875,"rots":[-25,-5,15,5,25,-15],"dils":[0.975,1.125,1.025,1.075,0.925,0.875],"loop_number":1,"everTouched":null},{"id":"train-images","shape":"7","outlier_type":"NA","choice":0,"outlierPosition":0,"success":true,"majorityOfMostRegularShapes":"NA","rt":1911.5999999996275,"rot1":-5,"rot2":25,"rot3":-15,"rot4":15,"rot5":-25,"rot6":5,"dil1":0.925,"dil2":1.125,"dil3":0.875,"dil4":1.025,"dil5":0.975,"dil6":1.075,"rots":[-5,25,-15,15,-25,5],"dils":[0.925,1.125,0.875,1.025,0.975,1.075],"loop_number":1,"everTouched":null},{"id":"train-images","shape":"1","outlier_type":"NA","choice":2,"outlierPosition":2,"success":true,"majorityOfMostRegularShapes":"NA","rt":1643.1999999985565,"rot1":-15,"rot2":5,"rot3":-5,"rot4":-25,"rot5":15,"rot6":25,"dil1":1.025,"dil2":1.075,"dil3":0.925,"dil4":0.875,"dil5":1.125,"dil6":0.975,"rots":[-15,5,-5,-25,15,25],"dils":[1.025,1.075,0.925,0.875,1.125,0.975],"loop_number":1,"everTouched":null},{"id":"train-images","shape":"8","outlier_type":"NA","choice":2,"outlierPosition":2,"success":true,"majorityOfMostRegularShapes":"NA","rt":1795.0999999956694,"rot1":-25,"rot2":25,"rot3":-5,"rot4":15,"rot5":-15,"rot6":5,"dil1":1.025,"dil2":1.125,"dil3":0.975,"dil4":0.925,"dil5":0.875,"dil6":1.075,"rots":[-25,25,-5,15,-15,5],"dils":[1.025,1.125,0.975,0.925,0.875,1.075],"loop_number":1,"everTouched":null},{"id":"train-images","shape":"3","outlier_type":"NA","choice":1,"outlierPosition":1,"success":true,"majorityOfMostRegularShapes":"NA","rt":1991.3999999989755,"rot1":25,"rot2":15,"rot3":-5,"rot4":5,"rot5":-15,"rot6":-25,"dil1":1.025,"dil2":1.125,"dil3":0.975,"dil4":1.075,"dil5":0.925,"dil6":0.875,"rots":[25,15,-5,5,-15,-25],"dils":[1.025,1.125,0.975,1.075,0.925,0.875],"loop_number":1,"everTouched":null}],"trial_type":"oddball-grid-image","trial_index":1,"time_elapsed":3979332,"internal_node_id":"0.0-1.0","ID":"p5xocdb5bx"},{"results":[{"id":"train","shape":null,"outlier_type":null,"choice":2,"outlierPosition":2,"success":true,"majorityOfMostRegularShapes":null,"rt":3324.3999999975786,"rot1":-5,"rot2":5,"rot3":25,"rot4":15,"rot5":-25,"rot6":-15,"dil1":1.125,"dil2":0.875,"dil3":0.975,"dil4":0.925,"dil5":1.025,"dil6":1.075,"rots":[-5,5,25,15,-25,-15],"dils":[1.125,0.875,0.975,0.925,1.025,1.075],"loop_number":1,"everTouched":null},{"id":"train","shape":null,"outlier_type":null,"choice":2,"outlierPosition":2,"success":true,"majorityOfMostRegularShapes":null,"rt":2542.9000000003725,"rot1":-15,"rot2":-25,"rot3":5,"rot4":-5,"rot5":15,"rot6":25,"dil1":1.075,"dil2":0.925,"dil3":1.025,"dil4":1.125,"dil5":0.975,"dil6":0.875,"rots":[-15,-25,5,-5,15,25],"dils":[1.075,0.925,1.025,1.125,0.975,0.875],"loop_number":1,"everTouched":null},{"id":"train","shape":null,"outlier_type":null,"choice":1,"outlierPosition":1,"success":true,"majorityOfMostRegularShapes":null,"rt":1945.5999999991618,"rot1":25,"rot2":-5,"rot3":-15,"rot4":15,"rot5":-25,"rot6":5,"dil1":0.975,"dil2":1.075,"dil3":0.925,"dil4":0.875,"dil5":1.125,"dil6":1.025,"rots":[25,-5,-15,15,-25,5],"dils":[0.975,1.075,0.925,0.875,1.125,1.025],"loop_number":1,"everTouched":null},{"id":"train","shape":null,"outlier_type":null,"choice":0,"outlierPosition":0,"success":true,"majorityOfMostRegularShapes":null,"rt":2840.60000000312,"rot1":-25,"rot2":15,"rot3":-5,"rot4":25,"rot5":5,"rot6":-15,"dil1":0.925,"dil2":0.875,"dil3":1.125,"dil4":1.025,"dil5":1.075,"dil6":0.975,"rots":[-25,15,-5,25,5,-15],"dils":[0.925,0.875,1.125,1.025,1.075,0.975],"loop_number":1,"everTouched":null},{"id":"train","shape":null,"outlier_type":null,"choice":4,"outlierPosition":4,"success":true,"majorityOfMostRegularShapes":null,"rt":2036.8000000016764,"rot1":-5,"rot2":25,"rot3":-25,"rot4":5,"rot5":15,"rot6":-15,"dil1":1.025,"dil2":0.975,"dil3":1.075,"dil4":0.875,"dil5":1.125,"dil6":0.925,"rots":[-5,25,-25,5,15,-15],"dils":[1.025,0.975,1.075,0.875,1.125,0.925],"loop_number":1,"everTouched":null},{"id":"train","shape":null,"outlier_type":null,"choice":2,"outlierPosition":2,"success":true,"majorityOfMostRegularShapes":null,"rt":1992.8999999973457,"rot1":15,"rot2":-5,"rot3":25,"rot4":-15,"rot5":-25,"rot6":5,"dil1":0.975,"dil2":1.125,"dil3":1.075,"dil4":0.875,"dil5":1.025,"dil6":0.925,"rots":[15,-5,25,-15,-25,5],"dils":[0.975,1.125,1.075,0.875,1.025,0.925],"loop_number":1,"everTouched":null}],"desiredDistance":0.3,"trial_type":"oddball-grid-easy","trial_index":2,"time_elapsed":4008584,"internal_node_id":"0.0-2.0","ID":"p5xocdb5bx"},{"results":[{"id":"test","shape":"parallelogram","outlier_type":0,"choice":5,"outlierPosition":5,"success":true,"majorityOfMostRegularShapes":true,"rt":10198.599999996135,"rot1":5,"rot2":-15,"rot3":15,"rot4":25,"rot5":-5,"rot6":-25,"dil1":0.975,"dil2":1.075,"dil3":0.875,"dil4":1.025,"dil5":0.925,"dil6":1.125,"rots":[5,-15,15,25,-5,-25],"dils":[0.975,1.075,0.875,1.025,0.925,1.125],"loop_number":"NA","everTouched":null},{"id":"test","shape":"isoTrapezoid","outlier_type":3,"choice":1,"outlierPosition":0,"success":false,"majorityOfMostRegularShapes":true,"rt":5003.700000001118,"rot1":-25,"rot2":-15,"rot3":25,"rot4":5,"rot5":15,"rot6":-5,"dil1":0.875,"dil2":1.125,"dil3":0.925,"dil4":1.075,"dil5":0.975,"dil6":1.025,"rots":[-25,-15,25,5,15,-5],"dils":[0.875,1.125,0.925,1.075,0.975,1.025],"loop_number":"NA","everTouched":null},{"id":"test","shape":"losange","outlier_type":1,"choice":0,"outlierPosition":0,"success":true,"majorityOfMostRegularShapes":true,"rt":2604.3999999966472,"rot1":5,"rot2":-15,"rot3":25,"rot4":-25,"rot5":15,"rot6":-5,"dil1":1.075,"dil2":1.025,"dil3":0.975,"dil4":0.925,"dil5":1.125,"dil6":0.875,"rots":[5,-15,25,-25,15,-5],"dils":[1.075,1.025,0.975,0.925,1.125,0.875],"loop_number":"NA","everTouched":null},{"id":"test","shape":"hinge","outlier_type":2,"choice":5,"outlierPosition":5,"success":true,"majorityOfMostRegularShapes":true,"rt":4261.000000005821,"rot1":25,"rot2":5,"rot3":-5,"rot4":15,"rot5":-15,"rot6":-25,"dil1":1.125,"dil2":0.975,"dil3":0.925,"dil4":1.025,"dil5":0.875,"dil6":1.075,"rots":[25,5,-5,15,-15,-25],"dils":[1.125,0.975,0.925,1.025,0.875,1.075],"loop_number":"NA","everTouched":null},{"id":"test","shape":"kite","outlier_type":0,"choice":4,"outlierPosition":4,"success":true,"majorityOfMostRegularShapes":true,"rt":5524.89999999688,"rot1":25,"rot2":-5,"rot3":-25,"rot4":5,"rot5":-15,"rot6":15,"dil1":0.975,"dil2":1.075,"dil3":0.925,"dil4":0.875,"dil5":1.025,"dil6":1.125,"rots":[25,-5,-25,5,-15,15],"dils":[0.975,1.075,0.925,0.875,1.025,1.125],"loop_number":"NA","everTouched":null},{"id":"test","shape":"trapezoid","outlier_type":3,"choice":2,"outlierPosition":2,"success":true,"majorityOfMostRegularShapes":true,"rt":4716.499999994878,"rot1":-5,"rot2":15,"rot3":5,"rot4":25,"rot5":-15,"rot6":-25,"dil1":0.875,"dil2":1.125,"dil3":1.075,"dil4":0.975,"dil5":0.925,"dil6":1.025,"rots":[-5,15,5,25,-15,-25],"dils":[0.875,1.125,1.075,0.975,0.925,1.025],"loop_number":"NA","everTouched":null},{"id":"test","shape":"isoTrapezoid","outlier_type":2,"choice":1,"outlierPosition":1,"success":true,"majorityOfMostRegularShapes":true,"rt":3142.7000000039116,"rot1":-5,"rot2":15,"rot3":25,"rot4":-25,"rot5":5,"rot6":-15,"dil1":1.125,"dil2":0.875,"dil3":1.025,"dil4":0.975,"dil5":1.075,"dil6":0.925,"rots":[-5,15,25,-25,5,-15],"dils":[1.125,0.875,1.025,0.975,1.075,0.925],"loop_number":"NA","everTouched":null},{"id":"test","shape":"hinge","outlier_type":1,"choice":5,"outlierPosition":5,"success":true,"majorityOfMostRegularShapes":true,"rt":3616.800000003539,"rot1":5,"rot2":15,"rot3":-15,"rot4":-25,"rot5":25,"rot6":-5,"dil1":0.875,"dil2":1.125,"dil3":0.925,"dil4":0.975,"dil5":1.025,"dil6":1.075,"rots":[5,15,-15,-25,25,-5],"dils":[0.875,1.125,0.925,0.975,1.025,1.075],"loop_number":"NA","everTouched":null},{"id":"test","shape":"rectangle","outlier_type":3,"choice":1,"outlierPosition":1,"success":true,"majorityOfMostRegularShapes":true,"rt":3931.0999999942724,"rot1":5,"rot2":-5,"rot3":25,"rot4":-25,"rot5":15,"rot6":-15,"dil1":1.125,"dil2":0.925,"dil3":1.025,"dil4":0.875,"dil5":0.975,"dil6":1.075,"rots":[5,-5,25,-25,15,-15],"dils":[1.125,0.925,1.025,0.875,0.975,1.075],"loop_number":"NA","everTouched":null},{"id":"test","shape":"random","outlier_type":2,"choice":5,"outlierPosition":0,"success":false,"majorityOfMostRegularShapes":true,"rt":6016.799999997718,"rot1":-25,"rot2":5,"rot3":25,"rot4":-5,"rot5":-15,"rot6":15,"dil1":0.975,"dil2":0.875,"dil3":1.075,"dil4":0.925,"dil5":1.025,"dil6":1.125,"rots":[-25,5,25,-5,-15,15],"dils":[0.975,0.875,1.075,0.925,1.025,1.125],"loop_number":"NA","everTouched":null},{"id":"test","shape":"rightKite","outlier_type":3,"choice":0,"outlierPosition":0,"success":true,"majorityOfMostRegularShapes":true,"rt":3013.999999995576,"rot1":25,"rot2":-15,"rot3":-5,"rot4":5,"rot5":-25,"rot6":15,"dil1":1.125,"dil2":0.975,"dil3":1.075,"dil4":0.875,"dil5":0.925,"dil6":1.025,"rots":[25,-15,-5,5,-25,15],"dils":[1.125,0.975,1.075,0.875,0.925,1.025],"loop_number":"NA","everTouched":null},{"id":"test","shape":"trapezoid","outlier_type":2,"choice":1,"outlierPosition":2,"success":false,"majorityOfMostRegularShapes":true,"rt":4326.400000005262,"rot1":-25,"rot2":25,"rot3":-15,"rot4":5,"rot5":15,"rot6":-5,"dil1":0.925,"dil2":1.125,"dil3":0.975,"dil4":0.875,"dil5":1.025,"dil6":1.075,"rots":[-25,25,-15,5,15,-5],"dils":[0.925,1.125,0.975,0.875,1.025,1.075],"loop_number":"NA","everTouched":null},{"id":"test","shape":"isoTrapezoid","outlier_type":1,"choice":0,"outlierPosition":0,"success":true,"majorityOfMostRegularShapes":true,"rt":5767.400000004331,"rot1":15,"rot2":-25,"rot3":25,"rot4":-5,"rot5":5,"rot6":-15,"dil1":1.125,"dil2":0.925,"dil3":0.975,"dil4":1.025,"dil5":0.875,"dil6":1.075,"rots":[15,-25,25,-5,5,-15],"dils":[1.125,0.925,0.975,1.025,0.875,1.075],"loop_number":"NA","everTouched":null},{"id":"test","shape":"losange","outlier_type":2,"choice":4,"outlierPosition":4,"success":true,"majorityOfMostRegularShapes":true,"rt":3100.5000000004657,"rot1":25,"rot2":-5,"rot3":-25,"rot4":15,"rot5":-15,"rot6":5,"dil1":1.125,"dil2":1.075,"dil3":0.925,"dil4":1.025,"dil5":0.975,"dil6":0.875,"rots":[25,-5,-25,15,-15,5],"dils":[1.125,1.075,0.925,1.025,0.975,0.875],"loop_number":"NA","everTouched":null},{"id":"test","shape":"rightKite","outlier_type":1,"choice":5,"outlierPosition":5,"success":true,"majorityOfMostRegularShapes":true,"rt":7551.599999998929,"rot1":-15,"rot2":-5,"rot3":25,"rot4":-25,"rot5":5,"rot6":15,"dil1":0.875,"dil2":1.075,"dil3":0.975,"dil4":1.125,"dil5":1.025,"dil6":0.925,"rots":[-15,-5,25,-25,5,15],"dils":[0.875,1.075,0.975,1.125,1.025,0.925],"loop_number":"NA","everTouched":null},{"id":"test","shape":"rustedHinge","outlier_type":0,"choice":1,"outlierPosition":3,"success":false,"majorityOfMostRegularShapes":true,"rt":4152.4999999965075,"rot1":15,"rot2":-15,"rot3":-5,"rot4":5,"rot5":25,"rot6":-25,"dil1":0.875,"dil2":0.925,"dil3":1.125,"dil4":1.075,"dil5":1.025,"dil6":0.975,"rots":[15,-15,-5,5,25,-25],"dils":[0.875,0.925,1.125,1.075,1.025,0.975],"loop_number":"NA","everTouched":null},{"id":"test","shape":"kite","outlier_type":1,"choice":2,"outlierPosition":2,"success":true,"majorityOfMostRegularShapes":true,"rt":5764.399999999907,"rot1":25,"rot2":-5,"rot3":-25,"rot4":-15,"rot5":5,"rot6":15,"dil1":1.025,"dil2":0.875,"dil3":0.975,"dil4":0.925,"dil5":1.125,"dil6":1.075,"rots":[25,-5,-25,-15,5,15],"dils":[1.025,0.875,0.975,0.925,1.125,1.075],"loop_number":"NA","everTouched":null},{"id":"test","shape":"isoTrapezoid","outlier_type":0,"choice":0,"outlierPosition":0,"success":true,"majorityOfMostRegularShapes":true,"rt":6938.300000001676,"rot1":15,"rot2":-5,"rot3":-25,"rot4":-15,"rot5":5,"rot6":25,"dil1":1.075,"dil2":0.975,"dil3":0.925,"dil4":1.125,"dil5":0.875,"dil6":1.025,"rots":[15,-5,-25,-15,5,25],"dils":[1.075,0.975,0.925,1.125,0.875,1.025],"loop_number":"NA","everTouched":null},{"id":"test","shape":"hinge","outlier_type":0,"choice":4,"outlierPosition":4,"success":true,"majorityOfMostRegularShapes":true,"rt":2952.800000006333,"rot1":15,"rot2":-5,"rot3":5,"rot4":25,"rot5":-25,"rot6":-15,"dil1":1.025,"dil2":1.075,"dil3":1.125,"dil4":0.875,"dil5":0.925,"dil6":0.975,"rots":[15,-5,5,25,-25,-15],"dils":[1.025,1.075,1.125,0.875,0.925,0.975],"loop_number":"NA","everTouched":null},{"id":"test","shape":"rustedHinge","outlier_type":1,"choice":4,"outlierPosition":4,"success":true,"majorityOfMostRegularShapes":true,"rt":3193.800000000745,"rot1":-15,"rot2":-25,"rot3":15,"rot4":-5,"rot5":25,"rot6":5,"dil1":1.025,"dil2":0.875,"dil3":1.075,"dil4":0.925,"dil5":1.125,"dil6":0.975,"rots":[-15,-25,15,-5,25,5],"dils":[1.025,0.875,1.075,0.925,1.125,0.975],"loop_number":"NA","everTouched":null},{"id":"test","shape":"square","outlier_type":3,"choice":2,"outlierPosition":2,"success":true,"majorityOfMostRegularShapes":true,"rt":2268.0000000034925,"rot1":5,"rot2":-5,"rot3":-25,"rot4":-15,"rot5":25,"rot6":15,"dil1":1.025,"dil2":0.975,"dil3":1.075,"dil4":0.925,"dil5":1.125,"dil6":0.875,"rots":[5,-5,-25,-15,25,15],"dils":[1.025,0.975,1.075,0.925,1.125,0.875],"loop_number":"NA","everTouched":null},{"id":"test","shape":"parallelogram","outlier_type":1,"choice":2,"outlierPosition":2,"success":true,"majorityOfMostRegularShapes":true,"rt":3717.7999999984168,"rot1":-25,"rot2":-5,"rot3":5,"rot4":15,"rot5":-15,"rot6":25,"dil1":0.875,"dil2":0.925,"dil3":1.025,"dil4":1.125,"dil5":1.075,"dil6":0.975,"rots":[-25,-5,5,15,-15,25],"dils":[0.875,0.925,1.025,1.125,1.075,0.975],"loop_number":"NA","everTouched":null},{"id":"test","shape":"rightKite","outlier_type":0,"choice":5,"outlierPosition":4,"success":false,"majorityOfMostRegularShapes":true,"rt":5129.1999999957625,"rot1":15,"rot2":-25,"rot3":5,"rot4":-15,"rot5":25,"rot6":-5,"dil1":1.075,"dil2":1.125,"dil3":0.925,"dil4":0.875,"dil5":0.975,"dil6":1.025,"rots":[15,-25,5,-15,25,-5],"dils":[1.075,1.125,0.925,0.875,0.975,1.025],"loop_number":"NA","everTouched":null},{"id":"test","shape":"parallelogram","outlier_type":3,"choice":2,"outlierPosition":2,"success":true,"majorityOfMostRegularShapes":true,"rt":5445.199999994598,"rot1":-25,"rot2":-15,"rot3":-5,"rot4":15,"rot5":5,"rot6":25,"dil1":1.025,"dil2":0.875,"dil3":1.125,"dil4":0.925,"dil5":1.075,"dil6":0.975,"rots":[-25,-15,-5,15,5,25],"dils":[1.025,0.875,1.125,0.925,1.075,0.975],"loop_number":"NA","everTouched":null},{"id":"test","shape":"rectangle","outlier_type":2,"choice":0,"outlierPosition":0,"success":true,"majorityOfMostRegularShapes":true,"rt":2542.300000000978,"rot1":-25,"rot2":-5,"rot3":15,"rot4":25,"rot5":-15,"rot6":5,"dil1":1.025,"dil2":0.975,"dil3":1.075,"dil4":0.925,"dil5":1.125,"dil6":0.875,"rots":[-25,-5,15,25,-15,5],"dils":[1.025,0.975,1.075,0.925,1.125,0.875],"loop_number":"NA","everTouched":null},{"id":"test","shape":"square","outlier_type":1,"choice":2,"outlierPosition":2,"success":true,"majorityOfMostRegularShapes":true,"rt":2885.0000000018626,"rot1":25,"rot2":-15,"rot3":15,"rot4":5,"rot5":-5,"rot6":-25,"dil1":0.925,"dil2":1.125,"dil3":1.025,"dil4":0.875,"dil5":0.975,"dil6":1.075,"rots":[25,-15,15,5,-5,-25],"dils":[0.925,1.125,1.025,0.875,0.975,1.075],"loop_number":"NA","everTouched":null},{"id":"test","shape":"random","outlier_type":0,"choice":5,"outlierPosition":2,"success":false,"majorityOfMostRegularShapes":true,"rt":5572.200000002282,"rot1":-5,"rot2":5,"rot3":15,"rot4":-15,"rot5":25,"rot6":-25,"dil1":1.075,"dil2":1.125,"dil3":0.925,"dil4":0.875,"dil5":0.975,"dil6":1.025,"rots":[-5,5,15,-15,25,-25],"dils":[1.075,1.125,0.925,0.875,0.975,1.025],"loop_number":"NA","everTouched":null},{"id":"test","shape":"square","outlier_type":2,"choice":4,"outlierPosition":4,"success":true,"majorityOfMostRegularShapes":true,"rt":2887.1999999973923,"rot1":-15,"rot2":-25,"rot3":25,"rot4":15,"rot5":5,"rot6":-5,"dil1":1.125,"dil2":0.875,"dil3":1.075,"dil4":0.975,"dil5":0.925,"dil6":1.025,"rots":[-15,-25,25,15,5,-5],"dils":[1.125,0.875,1.075,0.975,0.925,1.025],"loop_number":"NA","everTouched":null},{"id":"test","shape":"trapezoid","outlier_type":1,"choice":1,"outlierPosition":1,"success":true,"majorityOfMostRegularShapes":true,"rt":4452.199999999721,"rot1":-5,"rot2":5,"rot3":-25,"rot4":25,"rot5":15,"rot6":-15,"dil1":1.025,"dil2":0.875,"dil3":0.925,"dil4":1.075,"dil5":1.125,"dil6":0.975,"rots":[-5,5,-25,25,15,-15],"dils":[1.025,0.875,0.925,1.075,1.125,0.975],"loop_number":"NA","everTouched":null},{"id":"test","shape":"kite","outlier_type":3,"choice":0,"outlierPosition":0,"success":true,"majorityOfMostRegularShapes":true,"rt":4474.200000004144,"rot1":15,"rot2":5,"rot3":25,"rot4":-25,"rot5":-5,"rot6":-15,"dil1":0.925,"dil2":1.025,"dil3":1.125,"dil4":1.075,"dil5":0.875,"dil6":0.975,"rots":[15,5,25,-25,-5,-15],"dils":[0.925,1.025,1.125,1.075,0.875,0.975],"loop_number":"NA","everTouched":null},{"id":"test","shape":"square","outlier_type":0,"choice":3,"outlierPosition":3,"success":true,"majorityOfMostRegularShapes":true,"rt":2053,"rot1":25,"rot2":15,"rot3":5,"rot4":-5,"rot5":-25,"rot6":-15,"dil1":0.975,"dil2":1.025,"dil3":1.125,"dil4":0.925,"dil5":0.875,"dil6":1.075,"rots":[25,15,5,-5,-25,-15],"dils":[0.975,1.025,1.125,0.925,0.875,1.075],"loop_number":"NA","everTouched":null},{"id":"test","shape":"random","outlier_type":1,"choice":5,"outlierPosition":5,"success":true,"majorityOfMostRegularShapes":true,"rt":2286,"rot1":25,"rot2":-25,"rot3":-15,"rot4":15,"rot5":-5,"rot6":5,"dil1":0.975,"dil2":1.075,"dil3":1.125,"dil4":0.925,"dil5":1.025,"dil6":0.875,"rots":[25,-25,-15,15,-5,5],"dils":[0.975,1.075,1.125,0.925,1.025,0.875],"loop_number":"NA","everTouched":null},{"id":"test","shape":"rectangle","outlier_type":0,"choice":0,"outlierPosition":0,"success":true,"majorityOfMostRegularShapes":true,"rt":2144.8000000016764,"rot1":-15,"rot2":-25,"rot3":5,"rot4":25,"rot5":-5,"rot6":15,"dil1":0.875,"dil2":0.975,"dil3":1.075,"dil4":1.025,"dil5":0.925,"dil6":1.125,"rots":[-15,-25,5,25,-5,15],"dils":[0.875,0.975,1.075,1.025,0.925,1.125],"loop_number":"NA","everTouched":null},{"id":"test","shape":"kite","outlier_type":2,"choice":1,"outlierPosition":1,"success":true,"majorityOfMostRegularShapes":true,"rt":3367.599999997765,"rot1":-25,"rot2":25,"rot3":-15,"rot4":-5,"rot5":5,"rot6":15,"dil1":1.125,"dil2":0.975,"dil3":1.075,"dil4":1.025,"dil5":0.925,"dil6":0.875,"rots":[-25,25,-15,-5,5,15],"dils":[1.125,0.975,1.075,1.025,0.925,0.875],"loop_number":"NA","everTouched":null},{"id":"test","shape":"losange","outlier_type":0,"choice":4,"outlierPosition":4,"success":true,"majorityOfMostRegularShapes":true,"rt":3094.4000000017695,"rot1":-15,"rot2":-25,"rot3":15,"rot4":5,"rot5":-5,"rot6":25,"dil1":0.975,"dil2":0.925,"dil3":1.025,"dil4":0.875,"dil5":1.125,"dil6":1.075,"rots":[-15,-25,15,5,-5,25],"dils":[0.975,0.925,1.025,0.875,1.125,1.075],"loop_number":"NA","everTouched":null},{"id":"test","shape":"rustedHinge","outlier_type":3,"choice":4,"outlierPosition":3,"success":false,"majorityOfMostRegularShapes":true,"rt":8513.70000000298,"rot1":-25,"rot2":15,"rot3":5,"rot4":-5,"rot5":-15,"rot6":25,"dil1":0.975,"dil2":0.925,"dil3":1.125,"dil4":1.025,"dil5":0.875,"dil6":1.075,"rots":[-25,15,5,-5,-15,25],"dils":[0.975,0.925,1.125,1.025,0.875,1.075],"loop_number":"NA","everTouched":null},{"id":"test","shape":"rightKite","outlier_type":2,"choice":2,"outlierPosition":4,"success":false,"majorityOfMostRegularShapes":true,"rt":3756.199999996228,"rot1":-5,"rot2":-25,"rot3":-15,"rot4":15,"rot5":25,"rot6":5,"dil1":1.025,"dil2":0.875,"dil3":1.075,"dil4":0.925,"dil5":1.125,"dil6":0.975,"rots":[-5,-25,-15,15,25,5],"dils":[1.025,0.875,1.075,0.925,1.125,0.975],"loop_number":"NA","everTouched":null},{"id":"test","shape":"losange","outlier_type":3,"choice":5,"outlierPosition":5,"success":true,"majorityOfMostRegularShapes":true,"rt":3388.6999999957625,"rot1":-15,"rot2":25,"rot3":-5,"rot4":5,"rot5":15,"rot6":-25,"dil1":0.875,"dil2":0.975,"dil3":1.075,"dil4":1.025,"dil5":0.925,"dil6":1.125,"rots":[-15,25,-5,5,15,-25],"dils":[0.875,0.975,1.075,1.025,0.925,1.125],"loop_number":"NA","everTouched":null},{"id":"test","shape":"trapezoid","outlier_type":0,"choice":1,"outlierPosition":1,"success":true,"majorityOfMostRegularShapes":true,"rt":3744.2000000008848,"rot1":-15,"rot2":-25,"rot3":5,"rot4":25,"rot5":-5,"rot6":15,"dil1":1.025,"dil2":1.125,"dil3":0.925,"dil4":1.075,"dil5":0.875,"dil6":0.975,"rots":[-15,-25,5,25,-5,15],"dils":[1.025,1.125,0.925,1.075,0.875,0.975],"loop_number":"NA","everTouched":null},{"id":"test","shape":"parallelogram","outlier_type":2,"choice":3,"outlierPosition":3,"success":true,"majorityOfMostRegularShapes":true,"rt":3567.100000000326,"rot1":15,"rot2":-15,"rot3":-5,"rot4":5,"rot5":25,"rot6":-25,"dil1":1.075,"dil2":1.125,"dil3":1.025,"dil4":0.975,"dil5":0.875,"dil6":0.925,"rots":[15,-15,-5,5,25,-25],"dils":[1.075,1.125,1.025,0.975,0.875,0.925],"loop_number":"NA","everTouched":null},{"id":"test","shape":"rectangle","outlier_type":1,"choice":3,"outlierPosition":3,"success":true,"majorityOfMostRegularShapes":true,"rt":2313.6000000012573,"rot1":5,"rot2":25,"rot3":15,"rot4":-15,"rot5":-5,"rot6":-25,"dil1":0.925,"dil2":0.875,"dil3":1.025,"dil4":1.075,"dil5":0.975,"dil6":1.125,"rots":[5,25,15,-15,-5,-25],"dils":[0.925,0.875,1.025,1.075,0.975,1.125],"loop_number":"NA","everTouched":null},{"id":"test","shape":"rustedHinge","outlier_type":2,"choice":3,"outlierPosition":3,"success":true,"majorityOfMostRegularShapes":true,"rt":5005.600000004051,"rot1":-15,"rot2":5,"rot3":15,"rot4":-25,"rot5":25,"rot6":-5,"dil1":0.925,"dil2":1.125,"dil3":0.875,"dil4":0.975,"dil5":1.075,"dil6":1.025,"rots":[-15,5,15,-25,25,-5],"dils":[0.925,1.125,0.875,0.975,1.075,1.025],"loop_number":"NA","everTouched":null},{"id":"test","shape":"hinge","outlier_type":3,"choice":0,"outlierPosition":0,"success":true,"majorityOfMostRegularShapes":true,"rt":4416.5999999968335,"rot1":5,"rot2":-15,"rot3":25,"rot4":-5,"rot5":-25,"rot6":15,"dil1":0.925,"dil2":0.975,"dil3":1.125,"dil4":1.075,"dil5":1.025,"dil6":0.875,"rots":[5,-15,25,-5,-25,15],"dils":[0.925,0.975,1.125,1.075,1.025,0.875],"loop_number":"NA","everTouched":null},{"id":"test","shape":"random","outlier_type":3,"choice":0,"outlierPosition":0,"success":true,"majorityOfMostRegularShapes":true,"rt":2911.099999997532,"rot1":15,"rot2":-15,"rot3":5,"rot4":25,"rot5":-5,"rot6":-25,"dil1":1.125,"dil2":0.975,"dil3":1.025,"dil4":0.925,"dil5":0.875,"dil6":1.075,"rots":[15,-15,5,25,-5,-25],"dils":[1.125,0.975,1.025,0.925,0.875,1.075],"loop_number":"NA","everTouched":null}],"desiredDistance":0.3,"trial_type":"oddball-grid","trial_index":3,"time_elapsed":4279613,"internal_node_id":"0.0-3.0","ID":"p5xocdb5bx"},{"success":true,"trial_type":"fullscreen","trial_index":4,"time_elapsed":4284334,"internal_node_id":"0.0-4.0","ID":"p5xocdb5bx"}]