"success","trial_type","trial_index","time_elapsed","internal_node_id","ID","rt","stimulus","button_pressed","button_pressed_text"
"true","fullscreen","0","11682","0.0-0.0","fcnn4svvz2","","","",""
"","html-button-response","1","13462","0.0-1.0-0.0","fcnn4svvz2","1745.199999997567","<span class=stimul>à</span>","0","Correct"
"","html-button-response","2","14453","0.0-1.0-0.1","fcnn4svvz2","986.1000000018976","<span class=stimul>où</span>","0","Correct"
"","html-button-response","3","15561","0.0-1.0-0.2","fcnn4svvz2","1104.0000000066357","<span class=stimul>la</span>","0","Correct"
"","html-button-response","4","16594","0.0-1.0-0.3","fcnn4svvz2","1029.6999999991385","<span class=stimul>au</span>","0","Correct"
"","html-button-response","5","17512","0.0-1.0-0.4","fcnn4svvz2","915.2000000030966","<span class=stimul>tu</span>","0","Correct"
"","html-button-response","6","18422","0.0-1.0-0.5","fcnn4svvz2","906.4999999973224","<span class=stimul>un</span>","0","Correct"
"","html-button-response","7","19491","0.0-1.0-0.6","fcnn4svvz2","1064.700000002631","<span class=stimul>il</span>","0","Correct"
"","html-button-response","8","20408","0.0-1.0-0.7","fcnn4svvz2","914.1000000017812","<span class=stimul>été</span>","0","Correct"
"","html-button-response","9","21483","0.0-1.0-0.8","fcnn4svvz2","1071.4000000007218","<span class=stimul>on</span>","0","Correct"
"","html-button-response","10","22551","0.0-1.0-0.9","fcnn4svvz2","1065.2000000045518","<span class=stimul>mur</span>","0","Correct"
"","html-button-response","11","23444","0.0-1.0-0.10","fcnn4svvz2","888.8000000006286","<span class=stimul>ni</span>","0","Correct"
"","html-button-response","12","24230","0.0-1.0-0.11","fcnn4svvz2","783.4000000002561","<span class=stimul>sur</span>","0","Correct"
"","html-button-response","13","25198","0.0-1.0-0.12","fcnn4svvz2","964.2999999996391","<span class=stimul>qui</span>","0","Correct"
"","html-button-response","14","26099","0.0-1.0-0.13","fcnn4svvz2","897.7000000013504","<span class=stimul>vélo</span>","0","Correct"
"","html-button-response","15","26994","0.0-1.0-0.14","fcnn4svvz2","891.2000000054832","<span class=stimul>par</span>","0","Correct"
"","html-button-response","16","27871","0.0-1.0-0.15","fcnn4svvz2","873.8999999986845","<span class=stimul>feu</span>","0","Correct"
"","html-button-response","17","28847","0.0-1.0-0.16","fcnn4svvz2","973.2999999978347","<span class=stimul>ce</span>","0","Correct"
"","html-button-response","18","29904","0.0-1.0-0.17","fcnn4svvz2","1053.5000000018044","<span class=stimul>peur</span>","0","Correct"
"","html-button-response","19","30873","0.0-1.0-0.18","fcnn4svvz2","965.0000000037835","<span class=stimul>ami</span>","0","Correct"
"","html-button-response","20","31780","0.0-1.0-0.19","fcnn4svvz2","903.599999997823","<span class=stimul>moto</span>","0","Correct"
"","html-button-response","21","33301","0.0-1.0-0.20","fcnn4svvz2","1517.8999999989173","<span class=stimul>peau</span>","0","Correct"
"","html-button-response","22","34269","0.0-1.0-0.21","fcnn4svvz2","964.2999999996391","<span class=stimul>lune</span>","0","Correct"
"","html-button-response","23","35344","0.0-1.0-0.22","fcnn4svvz2","1072.1000000048662","<span class=stimul>gare</span>","0","Correct"
"","html-button-response","24","36179","0.0-1.0-0.23","fcnn4svvz2","831.7000000024564","<span class=stimul>lire</span>","0","Correct"
"","html-button-response","25","37136","0.0-1.0-0.24","fcnn4svvz2","953.2999999937601","<span class=stimul>bon</span>","0","Correct"
"","html-button-response","26","38269","0.0-1.0-0.25","fcnn4svvz2","1129.7000000049593","<span class=stimul>mardi</span>","0","Correct"
"","html-button-response","27","39072","0.0-1.0-0.26","fcnn4svvz2","799.300000006042","<span class=stimul>col</span>","0","Correct"
"","html-button-response","28","39915","0.0-1.0-0.27","fcnn4svvz2","839.5999999993364","<span class=stimul>avril</span>","0","Correct"
"","html-button-response","29","40834","0.0-1.0-0.28","fcnn4svvz2","915.3999999980442","<span class=stimul>roi</span>","0","Correct"
"","html-button-response","30","41693","0.0-1.0-0.29","fcnn4svvz2","855.7000000000698","<span class=stimul>faire</span>","0","Correct"
"","html-button-response","31","42472","0.0-1.0-0.30","fcnn4svvz2","775.8000000030734","<span class=stimul>facile</span>","0","Correct"
"","html-button-response","32","43364","0.0-1.0-0.31","fcnn4svvz2","888.5999999984051","<span class=stimul>cheval</span>","0","Correct"
"","html-button-response","33","44382","0.0-1.0-0.32","fcnn4svvz2","1014.4000000000233","<span class=stimul>vrai</span>","0","Correct"
"","html-button-response","34","45424","0.0-1.0-0.33","fcnn4svvz2","1037.7999999982421","<span class=stimul>ligne</span>","0","Correct"
"","html-button-response","35","46284","0.0-1.0-0.34","fcnn4svvz2","856.8000000013853","<span class=stimul>porte</span>","0","Correct"
"","html-button-response","36","47062","0.0-1.0-0.35","fcnn4svvz2","774.7999999992317","<span class=stimul>autre</span>","0","Correct"
"","html-button-response","37","47864","0.0-1.0-0.36","fcnn4svvz2","798.0999999999767","<span class=stimul>loup</span>","0","Correct"
"","html-button-response","38","49279","0.0-1.0-0.37","fcnn4svvz2","1412.400000001071","<span class=stimul>soir</span>","0","Correct"
"","html-button-response","39","49836","0.0-1.0-0.38","fcnn4svvz2","551.900000005844","<span class=stimul>page</span>","0","Correct"
"","html-button-response","40","50523","0.0-1.0-0.39","fcnn4svvz2","683.4999999991851","<span class=stimul>raisin</span>","0","Correct"
"","html-button-response","41","51355","0.0-1.0-0.40","fcnn4svvz2","828.0999999988126","<span class=stimul>car</span>","0","Correct"
"","html-button-response","42","52762","0.0-1.0-0.41","fcnn4svvz2","1402.3999999990338","<span class=stimul>sucre</span>","0","Correct"
"","html-button-response","43","53424","0.0-1.0-0.42","fcnn4svvz2","658.3000000027823","<span class=stimul>chat</span>","0","Correct"
"","html-button-response","44","54163","0.0-1.0-0.43","fcnn4svvz2","735.5000000025029","<span class=stimul>matin</span>","0","Correct"
"","html-button-response","45","54823","0.0-1.0-0.44","fcnn4svvz2","656.1000000001513","<span class=stimul>trésor</span>","0","Correct"
"","html-button-response","46","55517","0.0-1.0-0.45","fcnn4svvz2","690.4999999969732","<span class=stimul>soixante</span>","0","Correct"
"","html-button-response","47","56434","0.0-1.0-0.46","fcnn4svvz2","913.0999999979394","<span class=stimul>lundi</span>","0","Correct"
"","html-button-response","48","57427","0.0-1.0-0.47","fcnn4svvz2","988.7999999991735","<span class=stimul>rose</span>","0","Correct"
"","html-button-response","49","58190","0.0-1.0-0.48","fcnn4svvz2","758.9999999981956","<span class=stimul>visage</span>","0","Correct"
"","html-button-response","50","58918","0.0-1.0-0.49","fcnn4svvz2","723.7000000022817","<span class=stimul>six</span>","0","Correct"
"","html-button-response","51","59719","0.0-1.0-0.50","fcnn4svvz2","797.099999996135","<span class=stimul>ciseau</span>","0","Correct"
"","html-button-response","52","60976","0.0-1.0-0.51","fcnn4svvz2","1252.9999999969732","<span class=stimul>août</span>","0","Correct"
"","html-button-response","53","62025","0.0-1.0-0.52","fcnn4svvz2","1045.299999997951","<span class=stimul>pays</span>","0","Correct"
"","html-button-response","54","63045","0.0-1.0-0.53","fcnn4svvz2","1016.4999999979045","<span class=stimul>balai</span>","0","Correct"
"","html-button-response","55","64617","0.0-1.0-0.54","fcnn4svvz2","1567.4999999973807","<span class=stimul>fille</span>","0","Correct"
"","html-button-response","56","67885","0.0-1.0-0.55","fcnn4svvz2","3263.4999999936554","<span class=stimul>sept</span>","1","Incorrect"
"","html-button-response","57","68742","0.0-1.0-0.56","fcnn4svvz2","853.4999999974389","<span class=stimul>lourd</span>","0","Correct"
"","html-button-response","58","70979","0.0-1.0-0.57","fcnn4svvz2","2233.799999994517","<span class=stimul>femme</span>","0","Correct"
"","html-button-response","59","71683","0.0-1.0-0.58","fcnn4svvz2","","","",""
