[{"success":true,"trial_type":"fullscreen","trial_index":0,"time_elapsed":2229611,"internal_node_id":"0.0-0.0","ID":"29ywe5qaee"},{"results":[{"id":"train-images","shape":"4","outlier_type":"NA","choice":4,"outlierPosition":4,"success":true,"majorityOfMostRegularShapes":"NA","rt":4519.5,"rot1":25,"rot2":15,"rot3":-5,"rot4":5,"rot5":-25,"rot6":-15,"dil1":0.875,"dil2":0.925,"dil3":1.025,"dil4":0.975,"dil5":1.075,"dil6":1.125,"rots":[25,15,-5,5,-25,-15],"dils":[0.875,0.925,1.025,0.975,1.075,1.125],"loop_number":1,"everTouched":null},{"id":"train-images","shape":"2","outlier_type":"NA","choice":1,"outlierPosition":1,"success":true,"majorityOfMostRegularShapes":"NA","rt":1628.7000000001863,"rot1":-5,"rot2":15,"rot3":-15,"rot4":-25,"rot5":5,"rot6":25,"dil1":0.975,"dil2":1.025,"dil3":0.925,"dil4":1.075,"dil5":0.875,"dil6":1.125,"rots":[-5,15,-15,-25,5,25],"dils":[0.975,1.025,0.925,1.075,0.875,1.125],"loop_number":1,"everTouched":null},{"id":"train-images","shape":"9","outlier_type":"NA","choice":2,"outlierPosition":2,"success":true,"majorityOfMostRegularShapes":"NA","rt":3130.899999999441,"rot1":15,"rot2":-5,"rot3":25,"rot4":-15,"rot5":-25,"rot6":5,"dil1":0.925,"dil2":0.975,"dil3":1.025,"dil4":1.125,"dil5":0.875,"dil6":1.075,"rots":[15,-5,25,-15,-25,5],"dils":[0.925,0.975,1.025,1.125,0.875,1.075],"loop_number":1,"everTouched":null},{"id":"train-images","shape":"3","outlier_type":"NA","choice":3,"outlierPosition":3,"success":true,"majorityOfMostRegularShapes":"NA","rt":3954.7999999998137,"rot1":5,"rot2":-5,"rot3":25,"rot4":15,"rot5":-15,"rot6":-25,"dil1":0.975,"dil2":1.075,"dil3":0.875,"dil4":1.125,"dil5":0.925,"dil6":1.025,"rots":[5,-5,25,15,-15,-25],"dils":[0.975,1.075,0.875,1.125,0.925,1.025],"loop_number":1,"everTouched":null},{"id":"train-images","shape":"7","outlier_type":"NA","choice":3,"outlierPosition":3,"success":true,"majorityOfMostRegularShapes":"NA","rt":1447.7000000001863,"rot1":-15,"rot2":25,"rot3":-25,"rot4":15,"rot5":5,"rot6":-5,"dil1":1.075,"dil2":0.875,"dil3":0.975,"dil4":1.125,"dil5":1.025,"dil6":0.925,"rots":[-15,25,-25,15,5,-5],"dils":[1.075,0.875,0.975,1.125,1.025,0.925],"loop_number":1,"everTouched":null},{"id":"train-images","shape":"5","outlier_type":"NA","choice":1,"outlierPosition":1,"success":true,"majorityOfMostRegularShapes":"NA","rt":2460.2000000001863,"rot1":-5,"rot2":25,"rot3":15,"rot4":5,"rot5":-15,"rot6":-25,"dil1":0.925,"dil2":0.975,"dil3":1.025,"dil4":0.875,"dil5":1.075,"dil6":1.125,"rots":[-5,25,15,5,-15,-25],"dils":[0.925,0.975,1.025,0.875,1.075,1.125],"loop_number":1,"everTouched":null},{"id":"train-images","shape":"1","outlier_type":"NA","choice":3,"outlierPosition":3,"success":true,"majorityOfMostRegularShapes":"NA","rt":1250.4000000003725,"rot1":5,"rot2":15,"rot3":-5,"rot4":-25,"rot5":-15,"rot6":25,"dil1":1.075,"dil2":0.975,"dil3":0.925,"dil4":1.025,"dil5":0.875,"dil6":1.125,"rots":[5,15,-5,-25,-15,25],"dils":[1.075,0.975,0.925,1.025,0.875,1.125],"loop_number":1,"everTouched":null},{"id":"train-images","shape":"6","outlier_type":"NA","choice":5,"outlierPosition":5,"success":true,"majorityOfMostRegularShapes":"NA","rt":2573.399999999907,"rot1":25,"rot2":-25,"rot3":5,"rot4":15,"rot5":-15,"rot6":-5,"dil1":1.025,"dil2":1.075,"dil3":0.875,"dil4":0.925,"dil5":1.125,"dil6":0.975,"rots":[25,-25,5,15,-15,-5],"dils":[1.025,1.075,0.875,0.925,1.125,0.975],"loop_number":1,"everTouched":null},{"id":"train-images","shape":"8","outlier_type":"NA","choice":3,"outlierPosition":3,"success":true,"majorityOfMostRegularShapes":"NA","rt":1149.6000000000931,"rot1":-25,"rot2":-15,"rot3":15,"rot4":-5,"rot5":5,"rot6":25,"dil1":0.975,"dil2":1.025,"dil3":1.125,"dil4":0.925,"dil5":0.875,"dil6":1.075,"rots":[-25,-15,15,-5,5,25],"dils":[0.975,1.025,1.125,0.925,0.875,1.075],"loop_number":1,"everTouched":null},{"id":"train-images","shape":"10","outlier_type":"NA","choice":2,"outlierPosition":2,"success":true,"majorityOfMostRegularShapes":"NA","rt":1198.2000000001863,"rot1":-15,"rot2":25,"rot3":-5,"rot4":-25,"rot5":5,"rot6":15,"dil1":1.075,"dil2":1.125,"dil3":0.925,"dil4":0.875,"dil5":1.025,"dil6":0.975,"rots":[-15,25,-5,-25,5,15],"dils":[1.075,1.125,0.925,0.875,1.025,0.975],"loop_number":1,"everTouched":null}],"trial_type":"oddball-grid-image","trial_index":1,"time_elapsed":2298374,"internal_node_id":"0.0-1.0","ID":"29ywe5qaee"},{"results":[{"id":"train","shape":null,"outlier_type":null,"choice":0,"outlierPosition":0,"success":true,"majorityOfMostRegularShapes":null,"rt":1435.1000000000931,"rot1":25,"rot2":5,"rot3":-5,"rot4":-25,"rot5":-15,"rot6":15,"dil1":0.925,"dil2":0.975,"dil3":0.875,"dil4":1.125,"dil5":1.075,"dil6":1.025,"rots":[25,5,-5,-25,-15,15],"dils":[0.925,0.975,0.875,1.125,1.075,1.025],"loop_number":1,"everTouched":null},{"id":"train","shape":null,"outlier_type":null,"choice":3,"outlierPosition":3,"success":true,"majorityOfMostRegularShapes":null,"rt":1825.7000000001863,"rot1":-25,"rot2":-15,"rot3":5,"rot4":15,"rot5":25,"rot6":-5,"dil1":1.075,"dil2":0.875,"dil3":0.975,"dil4":1.125,"dil5":0.925,"dil6":1.025,"rots":[-25,-15,5,15,25,-5],"dils":[1.075,0.875,0.975,1.125,0.925,1.025],"loop_number":1,"everTouched":null},{"id":"train","shape":null,"outlier_type":null,"choice":4,"outlierPosition":4,"success":true,"majorityOfMostRegularShapes":null,"rt":1820.2000000001863,"rot1":25,"rot2":-5,"rot3":15,"rot4":-15,"rot5":-25,"rot6":5,"dil1":0.975,"dil2":1.075,"dil3":0.875,"dil4":0.925,"dil5":1.125,"dil6":1.025,"rots":[25,-5,15,-15,-25,5],"dils":[0.975,1.075,0.875,0.925,1.125,1.025],"loop_number":1,"everTouched":null},{"id":"train","shape":null,"outlier_type":null,"choice":1,"outlierPosition":1,"success":true,"majorityOfMostRegularShapes":null,"rt":1239.4999999995343,"rot1":-15,"rot2":25,"rot3":-5,"rot4":-25,"rot5":5,"rot6":15,"dil1":0.925,"dil2":1.125,"dil3":1.075,"dil4":1.025,"dil5":0.975,"dil6":0.875,"rots":[-15,25,-5,-25,5,15],"dils":[0.925,1.125,1.075,1.025,0.975,0.875],"loop_number":1,"everTouched":null},{"id":"train","shape":null,"outlier_type":null,"choice":2,"outlierPosition":2,"success":true,"majorityOfMostRegularShapes":null,"rt":2566.700000000652,"rot1":-5,"rot2":-25,"rot3":-15,"rot4":25,"rot5":15,"rot6":5,"dil1":0.925,"dil2":1.125,"dil3":1.075,"dil4":0.875,"dil5":1.025,"dil6":0.975,"rots":[-5,-25,-15,25,15,5],"dils":[0.925,1.125,1.075,0.875,1.025,0.975],"loop_number":1,"everTouched":null},{"id":"train","shape":null,"outlier_type":null,"choice":4,"outlierPosition":4,"success":true,"majorityOfMostRegularShapes":null,"rt":2206.9000000003725,"rot1":15,"rot2":-15,"rot3":-5,"rot4":5,"rot5":25,"rot6":-25,"dil1":0.925,"dil2":0.875,"dil3":1.025,"dil4":1.125,"dil5":1.075,"dil6":0.975,"rots":[15,-15,-5,5,25,-25],"dils":[0.925,0.875,1.025,1.125,1.075,0.975],"loop_number":1,"everTouched":null}],"desiredDistance":0.3,"trial_type":"oddball-grid-easy","trial_index":2,"time_elapsed":2324922,"internal_node_id":"0.0-2.0","ID":"29ywe5qaee"},{"results":[{"id":"test","shape":"kite","outlier_type":1,"choice":0,"outlierPosition":0,"success":true,"majorityOfMostRegularShapes":true,"rt":7223.200000000186,"rot1":25,"rot2":-5,"rot3":-25,"rot4":-15,"rot5":5,"rot6":15,"dil1":1.075,"dil2":1.025,"dil3":1.125,"dil4":0.875,"dil5":0.925,"dil6":0.975,"rots":[25,-5,-25,-15,5,15],"dils":[1.075,1.025,1.125,0.875,0.925,0.975],"loop_number":"NA","everTouched":null},{"id":"test","shape":"rectangle","outlier_type":3,"choice":4,"outlierPosition":4,"success":true,"majorityOfMostRegularShapes":true,"rt":2768.7000000001863,"rot1":15,"rot2":25,"rot3":5,"rot4":-15,"rot5":-25,"rot6":-5,"dil1":1.125,"dil2":1.075,"dil3":0.975,"dil4":1.025,"dil5":0.875,"dil6":0.925,"rots":[15,25,5,-15,-25,-5],"dils":[1.125,1.075,0.975,1.025,0.875,0.925],"loop_number":"NA","everTouched":null},{"id":"test","shape":"random","outlier_type":1,"choice":4,"outlierPosition":4,"success":true,"majorityOfMostRegularShapes":true,"rt":5631.899999999907,"rot1":-25,"rot2":-5,"rot3":25,"rot4":5,"rot5":15,"rot6":-15,"dil1":0.975,"dil2":1.125,"dil3":1.025,"dil4":1.075,"dil5":0.875,"dil6":0.925,"rots":[-25,-5,25,5,15,-15],"dils":[0.975,1.125,1.025,1.075,0.875,0.925],"loop_number":"NA","everTouched":null},{"id":"test","shape":"square","outlier_type":3,"choice":4,"outlierPosition":4,"success":true,"majorityOfMostRegularShapes":true,"rt":5348.899999999907,"rot1":5,"rot2":25,"rot3":15,"rot4":-25,"rot5":-5,"rot6":-15,"dil1":0.975,"dil2":0.875,"dil3":0.925,"dil4":1.025,"dil5":1.075,"dil6":1.125,"rots":[5,25,15,-25,-5,-15],"dils":[0.975,0.875,0.925,1.025,1.075,1.125],"loop_number":"NA","everTouched":null},{"id":"test","shape":"random","outlier_type":0,"choice":2,"outlierPosition":0,"success":false,"majorityOfMostRegularShapes":true,"rt":5505.700000000186,"rot1":5,"rot2":15,"rot3":-25,"rot4":-5,"rot5":25,"rot6":-15,"dil1":1.075,"dil2":0.925,"dil3":0.975,"dil4":0.875,"dil5":1.125,"dil6":1.025,"rots":[5,15,-25,-5,25,-15],"dils":[1.075,0.925,0.975,0.875,1.125,1.025],"loop_number":"NA","everTouched":null},{"id":"test","shape":"trapezoid","outlier_type":2,"choice":2,"outlierPosition":2,"success":true,"majorityOfMostRegularShapes":true,"rt":21196.399999999907,"rot1":25,"rot2":5,"rot3":15,"rot4":-25,"rot5":-5,"rot6":-15,"dil1":1.125,"dil2":1.025,"dil3":0.925,"dil4":0.975,"dil5":0.875,"dil6":1.075,"rots":[25,5,15,-25,-5,-15],"dils":[1.125,1.025,0.925,0.975,0.875,1.075],"loop_number":"NA","everTouched":null},{"id":"test","shape":"rectangle","outlier_type":1,"choice":5,"outlierPosition":5,"success":true,"majorityOfMostRegularShapes":true,"rt":1963.1000000000931,"rot1":5,"rot2":-15,"rot3":15,"rot4":-5,"rot5":-25,"rot6":25,"dil1":0.875,"dil2":0.925,"dil3":1.075,"dil4":0.975,"dil5":1.125,"dil6":1.025,"rots":[5,-15,15,-5,-25,25],"dils":[0.875,0.925,1.075,0.975,1.125,1.025],"loop_number":"NA","everTouched":null},{"id":"test","shape":"trapezoid","outlier_type":0,"choice":1,"outlierPosition":5,"success":false,"majorityOfMostRegularShapes":true,"rt":3562.899999999907,"rot1":15,"rot2":-25,"rot3":5,"rot4":-5,"rot5":-15,"rot6":25,"dil1":1.075,"dil2":1.125,"dil3":0.875,"dil4":0.925,"dil5":0.975,"dil6":1.025,"rots":[15,-25,5,-5,-15,25],"dils":[1.075,1.125,0.875,0.925,0.975,1.025],"loop_number":"NA","everTouched":null},{"id":"test","shape":"hinge","outlier_type":3,"choice":2,"outlierPosition":3,"success":false,"majorityOfMostRegularShapes":true,"rt":2420.2999999998137,"rot1":25,"rot2":-15,"rot3":15,"rot4":5,"rot5":-5,"rot6":-25,"dil1":1.125,"dil2":0.875,"dil3":1.075,"dil4":1.025,"dil5":0.975,"dil6":0.925,"rots":[25,-15,15,5,-5,-25],"dils":[1.125,0.875,1.075,1.025,0.975,0.925],"loop_number":"NA","everTouched":null},{"id":"test","shape":"losange","outlier_type":0,"choice":3,"outlierPosition":1,"success":false,"majorityOfMostRegularShapes":true,"rt":8831.299999999814,"rot1":-25,"rot2":5,"rot3":15,"rot4":25,"rot5":-5,"rot6":-15,"dil1":0.975,"dil2":0.925,"dil3":0.875,"dil4":1.125,"dil5":1.025,"dil6":1.075,"rots":[-25,5,15,25,-5,-15],"dils":[0.975,0.925,0.875,1.125,1.025,1.075],"loop_number":"NA","everTouched":null},{"id":"test","shape":"rustedHinge","outlier_type":3,"choice":3,"outlierPosition":3,"success":true,"majorityOfMostRegularShapes":true,"rt":13383.30000000028,"rot1":-25,"rot2":25,"rot3":15,"rot4":-15,"rot5":-5,"rot6":5,"dil1":0.925,"dil2":1.125,"dil3":0.975,"dil4":0.875,"dil5":1.025,"dil6":1.075,"rots":[-25,25,15,-15,-5,5],"dils":[0.925,1.125,0.975,0.875,1.025,1.075],"loop_number":"NA","everTouched":null},{"id":"test","shape":"isoTrapezoid","outlier_type":0,"choice":1,"outlierPosition":3,"success":false,"majorityOfMostRegularShapes":true,"rt":4248.800000000279,"rot1":5,"rot2":-15,"rot3":15,"rot4":25,"rot5":-5,"rot6":-25,"dil1":1.125,"dil2":0.875,"dil3":1.025,"dil4":0.925,"dil5":1.075,"dil6":0.975,"rots":[5,-15,15,25,-5,-25],"dils":[1.125,0.875,1.025,0.925,1.075,0.975],"loop_number":"NA","everTouched":null},{"id":"test","shape":"rightKite","outlier_type":1,"choice":3,"outlierPosition":3,"success":true,"majorityOfMostRegularShapes":true,"rt":7310.499999999534,"rot1":25,"rot2":-5,"rot3":15,"rot4":-15,"rot5":5,"rot6":-25,"dil1":1.125,"dil2":1.025,"dil3":0.975,"dil4":0.875,"dil5":1.075,"dil6":0.925,"rots":[25,-5,15,-15,5,-25],"dils":[1.125,1.025,0.975,0.875,1.075,0.925],"loop_number":"NA","everTouched":null},{"id":"test","shape":"losange","outlier_type":3,"choice":0,"outlierPosition":0,"success":true,"majorityOfMostRegularShapes":true,"rt":3386.0000000004657,"rot1":-15,"rot2":15,"rot3":-5,"rot4":25,"rot5":-25,"rot6":5,"dil1":1.075,"dil2":1.025,"dil3":0.925,"dil4":0.975,"dil5":0.875,"dil6":1.125,"rots":[-15,15,-5,25,-25,5],"dils":[1.075,1.025,0.925,0.975,0.875,1.125],"loop_number":"NA","everTouched":null},{"id":"test","shape":"rectangle","outlier_type":0,"choice":3,"outlierPosition":3,"success":true,"majorityOfMostRegularShapes":true,"rt":4498.899999999907,"rot1":-15,"rot2":5,"rot3":15,"rot4":25,"rot5":-25,"rot6":-5,"dil1":1.025,"dil2":1.125,"dil3":0.925,"dil4":1.075,"dil5":0.975,"dil6":0.875,"rots":[-15,5,15,25,-25,-5],"dils":[1.025,1.125,0.925,1.075,0.975,0.875],"loop_number":"NA","everTouched":null},{"id":"test","shape":"trapezoid","outlier_type":1,"choice":2,"outlierPosition":2,"success":true,"majorityOfMostRegularShapes":true,"rt":4128.799999999814,"rot1":5,"rot2":15,"rot3":-5,"rot4":25,"rot5":-25,"rot6":-15,"dil1":0.975,"dil2":1.125,"dil3":1.025,"dil4":1.075,"dil5":0.925,"dil6":0.875,"rots":[5,15,-5,25,-25,-15],"dils":[0.975,1.125,1.025,1.075,0.925,0.875],"loop_number":"NA","everTouched":null},{"id":"test","shape":"rectangle","outlier_type":2,"choice":2,"outlierPosition":2,"success":true,"majorityOfMostRegularShapes":true,"rt":2669.5,"rot1":-15,"rot2":5,"rot3":25,"rot4":-25,"rot5":-5,"rot6":15,"dil1":0.925,"dil2":1.125,"dil3":0.975,"dil4":1.075,"dil5":1.025,"dil6":0.875,"rots":[-15,5,25,-25,-5,15],"dils":[0.925,1.125,0.975,1.075,1.025,0.875],"loop_number":"NA","everTouched":null},{"id":"test","shape":"rustedHinge","outlier_type":1,"choice":5,"outlierPosition":5,"success":true,"majorityOfMostRegularShapes":true,"rt":3285.4000000003725,"rot1":-15,"rot2":-5,"rot3":25,"rot4":-25,"rot5":5,"rot6":15,"dil1":1.125,"dil2":1.025,"dil3":1.075,"dil4":0.925,"dil5":0.975,"dil6":0.875,"rots":[-15,-5,25,-25,5,15],"dils":[1.125,1.025,1.075,0.925,0.975,0.875],"loop_number":"NA","everTouched":null},{"id":"test","shape":"parallelogram","outlier_type":2,"choice":4,"outlierPosition":4,"success":true,"majorityOfMostRegularShapes":true,"rt":4622.899999999441,"rot1":-25,"rot2":15,"rot3":-5,"rot4":5,"rot5":-15,"rot6":25,"dil1":1.125,"dil2":1.075,"dil3":0.925,"dil4":0.975,"dil5":0.875,"dil6":1.025,"rots":[-25,15,-5,5,-15,25],"dils":[1.125,1.075,0.925,0.975,0.875,1.025],"loop_number":"NA","everTouched":null},{"id":"test","shape":"square","outlier_type":1,"choice":5,"outlierPosition":5,"success":true,"majorityOfMostRegularShapes":true,"rt":2181,"rot1":-25,"rot2":15,"rot3":5,"rot4":-5,"rot5":-15,"rot6":25,"dil1":1.025,"dil2":0.975,"dil3":0.875,"dil4":0.925,"dil5":1.125,"dil6":1.075,"rots":[-25,15,5,-5,-15,25],"dils":[1.025,0.975,0.875,0.925,1.125,1.075],"loop_number":"NA","everTouched":null},{"id":"test","shape":"trapezoid","outlier_type":3,"choice":2,"outlierPosition":2,"success":true,"majorityOfMostRegularShapes":true,"rt":2556.7999999998137,"rot1":-15,"rot2":15,"rot3":-25,"rot4":5,"rot5":-5,"rot6":25,"dil1":1.025,"dil2":0.925,"dil3":1.075,"dil4":1.125,"dil5":0.875,"dil6":0.975,"rots":[-15,15,-25,5,-5,25],"dils":[1.025,0.925,1.075,1.125,0.875,0.975],"loop_number":"NA","everTouched":null},{"id":"test","shape":"rustedHinge","outlier_type":0,"choice":0,"outlierPosition":0,"success":true,"majorityOfMostRegularShapes":true,"rt":7673.399999999907,"rot1":25,"rot2":5,"rot3":-15,"rot4":-5,"rot5":15,"rot6":-25,"dil1":1.125,"dil2":1.025,"dil3":1.075,"dil4":0.975,"dil5":0.925,"dil6":0.875,"rots":[25,5,-15,-5,15,-25],"dils":[1.125,1.025,1.075,0.975,0.925,0.875],"loop_number":"NA","everTouched":null},{"id":"test","shape":"square","outlier_type":2,"choice":0,"outlierPosition":0,"success":true,"majorityOfMostRegularShapes":true,"rt":1882.4999999995343,"rot1":25,"rot2":5,"rot3":-15,"rot4":15,"rot5":-25,"rot6":-5,"dil1":1.075,"dil2":1.025,"dil3":0.975,"dil4":0.875,"dil5":1.125,"dil6":0.925,"rots":[25,5,-15,15,-25,-5],"dils":[1.075,1.025,0.975,0.875,1.125,0.925],"loop_number":"NA","everTouched":null},{"id":"test","shape":"losange","outlier_type":1,"choice":4,"outlierPosition":4,"success":true,"majorityOfMostRegularShapes":true,"rt":6917,"rot1":-25,"rot2":25,"rot3":15,"rot4":5,"rot5":-15,"rot6":-5,"dil1":1.125,"dil2":0.975,"dil3":0.875,"dil4":0.925,"dil5":1.025,"dil6":1.075,"rots":[-25,25,15,5,-15,-5],"dils":[1.125,0.975,0.875,0.925,1.025,1.075],"loop_number":"NA","everTouched":null},{"id":"test","shape":"kite","outlier_type":0,"choice":5,"outlierPosition":1,"success":false,"majorityOfMostRegularShapes":true,"rt":4109.9000000003725,"rot1":-5,"rot2":15,"rot3":-15,"rot4":25,"rot5":5,"rot6":-25,"dil1":1.125,"dil2":1.075,"dil3":1.025,"dil4":0.975,"dil5":0.925,"dil6":0.875,"rots":[-5,15,-15,25,5,-25],"dils":[1.125,1.075,1.025,0.975,0.925,0.875],"loop_number":"NA","everTouched":null},{"id":"test","shape":"losange","outlier_type":2,"choice":0,"outlierPosition":0,"success":true,"majorityOfMostRegularShapes":true,"rt":4564.999999999534,"rot1":-15,"rot2":5,"rot3":-25,"rot4":-5,"rot5":15,"rot6":25,"dil1":0.875,"dil2":0.975,"dil3":1.075,"dil4":1.125,"dil5":0.925,"dil6":1.025,"rots":[-15,5,-25,-5,15,25],"dils":[0.875,0.975,1.075,1.125,0.925,1.025],"loop_number":"NA","everTouched":null},{"id":"test","shape":"parallelogram","outlier_type":0,"choice":5,"outlierPosition":1,"success":false,"majorityOfMostRegularShapes":true,"rt":5434.700000000186,"rot1":-5,"rot2":-25,"rot3":5,"rot4":25,"rot5":15,"rot6":-15,"dil1":0.925,"dil2":1.075,"dil3":1.125,"dil4":1.025,"dil5":0.875,"dil6":0.975,"rots":[-5,-25,5,25,15,-15],"dils":[0.925,1.075,1.125,1.025,0.875,0.975],"loop_number":"NA","everTouched":null},{"id":"test","shape":"hinge","outlier_type":1,"choice":1,"outlierPosition":1,"success":true,"majorityOfMostRegularShapes":true,"rt":4075.899999999907,"rot1":15,"rot2":-5,"rot3":5,"rot4":25,"rot5":-15,"rot6":-25,"dil1":0.875,"dil2":1.075,"dil3":1.025,"dil4":0.975,"dil5":1.125,"dil6":0.925,"rots":[15,-5,5,25,-15,-25],"dils":[0.875,1.075,1.025,0.975,1.125,0.925],"loop_number":"NA","everTouched":null},{"id":"test","shape":"rustedHinge","outlier_type":2,"choice":4,"outlierPosition":4,"success":true,"majorityOfMostRegularShapes":true,"rt":4711.299999999814,"rot1":-5,"rot2":25,"rot3":15,"rot4":-15,"rot5":-25,"rot6":5,"dil1":1.075,"dil2":0.875,"dil3":0.925,"dil4":1.125,"dil5":0.975,"dil6":1.025,"rots":[-5,25,15,-15,-25,5],"dils":[1.075,0.875,0.925,1.125,0.975,1.025],"loop_number":"NA","everTouched":null},{"id":"test","shape":"isoTrapezoid","outlier_type":1,"choice":4,"outlierPosition":4,"success":true,"majorityOfMostRegularShapes":true,"rt":4339,"rot1":15,"rot2":-25,"rot3":-15,"rot4":25,"rot5":-5,"rot6":5,"dil1":1.075,"dil2":1.125,"dil3":0.925,"dil4":0.975,"dil5":0.875,"dil6":1.025,"rots":[15,-25,-15,25,-5,5],"dils":[1.075,1.125,0.925,0.975,0.875,1.025],"loop_number":"NA","everTouched":null},{"id":"test","shape":"kite","outlier_type":2,"choice":1,"outlierPosition":1,"success":true,"majorityOfMostRegularShapes":true,"rt":2652.100000000093,"rot1":15,"rot2":-5,"rot3":-25,"rot4":-15,"rot5":5,"rot6":25,"dil1":0.925,"dil2":1.125,"dil3":0.975,"dil4":0.875,"dil5":1.075,"dil6":1.025,"rots":[15,-5,-25,-15,5,25],"dils":[0.925,1.125,0.975,0.875,1.075,1.025],"loop_number":"NA","everTouched":null},{"id":"test","shape":"rightKite","outlier_type":3,"choice":5,"outlierPosition":4,"success":false,"majorityOfMostRegularShapes":true,"rt":7203.299999999814,"rot1":5,"rot2":-15,"rot3":-5,"rot4":25,"rot5":15,"rot6":-25,"dil1":1.025,"dil2":1.125,"dil3":1.075,"dil4":0.975,"dil5":0.875,"dil6":0.925,"rots":[5,-15,-5,25,15,-25],"dils":[1.025,1.125,1.075,0.975,0.875,0.925],"loop_number":"NA","everTouched":null},{"id":"test","shape":"square","outlier_type":0,"choice":1,"outlierPosition":1,"success":true,"majorityOfMostRegularShapes":true,"rt":1942.7000000001863,"rot1":5,"rot2":-5,"rot3":15,"rot4":25,"rot5":-25,"rot6":-15,"dil1":0.925,"dil2":1.075,"dil3":0.975,"dil4":1.125,"dil5":0.875,"dil6":1.025,"rots":[5,-5,15,25,-25,-15],"dils":[0.925,1.075,0.975,1.125,0.875,1.025],"loop_number":"NA","everTouched":null},{"id":"test","shape":"kite","outlier_type":3,"choice":1,"outlierPosition":1,"success":true,"majorityOfMostRegularShapes":true,"rt":4398.800000000279,"rot1":15,"rot2":25,"rot3":5,"rot4":-25,"rot5":-15,"rot6":-5,"dil1":0.975,"dil2":1.075,"dil3":1.025,"dil4":0.925,"dil5":1.125,"dil6":0.875,"rots":[15,25,5,-25,-15,-5],"dils":[0.975,1.075,1.025,0.925,1.125,0.875],"loop_number":"NA","everTouched":null},{"id":"test","shape":"hinge","outlier_type":2,"choice":2,"outlierPosition":2,"success":true,"majorityOfMostRegularShapes":true,"rt":6314.699999999721,"rot1":25,"rot2":-25,"rot3":-5,"rot4":-15,"rot5":15,"rot6":5,"dil1":1.075,"dil2":0.875,"dil3":0.925,"dil4":0.975,"dil5":1.025,"dil6":1.125,"rots":[25,-25,-5,-15,15,5],"dils":[1.075,0.875,0.925,0.975,1.025,1.125],"loop_number":"NA","everTouched":null},{"id":"test","shape":"random","outlier_type":3,"choice":0,"outlierPosition":2,"success":false,"majorityOfMostRegularShapes":true,"rt":2526.8000000002794,"rot1":-15,"rot2":-5,"rot3":15,"rot4":25,"rot5":-25,"rot6":5,"dil1":1.125,"dil2":0.975,"dil3":1.075,"dil4":0.925,"dil5":0.875,"dil6":1.025,"rots":[-15,-5,15,25,-25,5],"dils":[1.125,0.975,1.075,0.925,0.875,1.025],"loop_number":"NA","everTouched":null},{"id":"test","shape":"rightKite","outlier_type":0,"choice":5,"outlierPosition":2,"success":false,"majorityOfMostRegularShapes":true,"rt":5588.500000000466,"rot1":-5,"rot2":5,"rot3":25,"rot4":15,"rot5":-15,"rot6":-25,"dil1":1.075,"dil2":0.875,"dil3":0.925,"dil4":1.125,"dil5":0.975,"dil6":1.025,"rots":[-5,5,25,15,-15,-25],"dils":[1.075,0.875,0.925,1.125,0.975,1.025],"loop_number":"NA","everTouched":null},{"id":"test","shape":"random","outlier_type":2,"choice":5,"outlierPosition":3,"success":false,"majorityOfMostRegularShapes":true,"rt":6428.9000000003725,"rot1":15,"rot2":-25,"rot3":5,"rot4":-15,"rot5":-5,"rot6":25,"dil1":0.925,"dil2":1.075,"dil3":0.875,"dil4":0.975,"dil5":1.025,"dil6":1.125,"rots":[15,-25,5,-15,-5,25],"dils":[0.925,1.075,0.875,0.975,1.025,1.125],"loop_number":"NA","everTouched":null},{"id":"test","shape":"isoTrapezoid","outlier_type":3,"choice":4,"outlierPosition":4,"success":true,"majorityOfMostRegularShapes":true,"rt":7550.500000000466,"rot1":15,"rot2":25,"rot3":-5,"rot4":-15,"rot5":5,"rot6":-25,"dil1":0.875,"dil2":1.125,"dil3":1.075,"dil4":0.975,"dil5":1.025,"dil6":0.925,"rots":[15,25,-5,-15,5,-25],"dils":[0.875,1.125,1.075,0.975,1.025,0.925],"loop_number":"NA","everTouched":null},{"id":"test","shape":"rightKite","outlier_type":2,"choice":0,"outlierPosition":0,"success":true,"majorityOfMostRegularShapes":true,"rt":1973.2000000001863,"rot1":15,"rot2":5,"rot3":25,"rot4":-25,"rot5":-5,"rot6":-15,"dil1":1.025,"dil2":1.125,"dil3":0.975,"dil4":0.875,"dil5":1.075,"dil6":0.925,"rots":[15,5,25,-25,-5,-15],"dils":[1.025,1.125,0.975,0.875,1.075,0.925],"loop_number":"NA","everTouched":null},{"id":"test","shape":"hinge","outlier_type":0,"choice":2,"outlierPosition":2,"success":true,"majorityOfMostRegularShapes":true,"rt":4301.700000000186,"rot1":25,"rot2":5,"rot3":-15,"rot4":-25,"rot5":-5,"rot6":15,"dil1":1.075,"dil2":1.025,"dil3":1.125,"dil4":0.875,"dil5":0.975,"dil6":0.925,"rots":[25,5,-15,-25,-5,15],"dils":[1.075,1.025,1.125,0.875,0.975,0.925],"loop_number":"NA","everTouched":null},{"id":"test","shape":"parallelogram","outlier_type":3,"choice":0,"outlierPosition":0,"success":true,"majorityOfMostRegularShapes":true,"rt":2335.600000000093,"rot1":25,"rot2":5,"rot3":15,"rot4":-5,"rot5":-15,"rot6":-25,"dil1":0.875,"dil2":0.975,"dil3":1.025,"dil4":1.125,"dil5":1.075,"dil6":0.925,"rots":[25,5,15,-5,-15,-25],"dils":[0.875,0.975,1.025,1.125,1.075,0.925],"loop_number":"NA","everTouched":null},{"id":"test","shape":"isoTrapezoid","outlier_type":2,"choice":3,"outlierPosition":3,"success":true,"majorityOfMostRegularShapes":true,"rt":3688.100000000093,"rot1":-5,"rot2":5,"rot3":15,"rot4":-25,"rot5":25,"rot6":-15,"dil1":0.925,"dil2":0.875,"dil3":1.125,"dil4":1.075,"dil5":0.975,"dil6":1.025,"rots":[-5,5,15,-25,25,-15],"dils":[0.925,0.875,1.125,1.075,0.975,1.025],"loop_number":"NA","everTouched":null},{"id":"test","shape":"parallelogram","outlier_type":1,"choice":3,"outlierPosition":5,"success":false,"majorityOfMostRegularShapes":true,"rt":5109.899999999907,"rot1":-25,"rot2":25,"rot3":15,"rot4":-15,"rot5":-5,"rot6":5,"dil1":0.875,"dil2":0.975,"dil3":1.025,"dil4":0.925,"dil5":1.075,"dil6":1.125,"rots":[-25,25,15,-15,-5,5],"dils":[0.875,0.975,1.025,0.925,1.075,1.125],"loop_number":"NA","everTouched":null}],"desiredDistance":0.3,"trial_type":"oddball-grid","trial_index":3,"time_elapsed":2636514,"internal_node_id":"0.0-3.0","ID":"29ywe5qaee"},{"success":true,"trial_type":"fullscreen","trial_index":4,"time_elapsed":2645394,"internal_node_id":"0.0-4.0","ID":"29ywe5qaee"}]