[{"success":true,"trial_type":"fullscreen","trial_index":0,"time_elapsed":530291,"internal_node_id":"0.0-0.0","ID":"hwuekexp5d"},{"results":[{"id":"train-images","shape":"4","outlier_type":"NA","choice":3,"outlierPosition":3,"success":true,"majorityOfMostRegularShapes":"NA","rt":4905.09999999631,"rot1":15,"rot2":-15,"rot3":5,"rot4":-25,"rot5":25,"rot6":-5,"dil1":1.125,"dil2":0.975,"dil3":0.875,"dil4":0.925,"dil5":1.025,"dil6":1.075,"rots":[15,-15,5,-25,25,-5],"dils":[1.125,0.975,0.875,0.925,1.025,1.075],"loop_number":1,"everTouched":null},{"id":"train-images","shape":"3","outlier_type":"NA","choice":0,"outlierPosition":0,"success":true,"majorityOfMostRegularShapes":"NA","rt":2149.3000000045868,"rot1":-15,"rot2":-5,"rot3":5,"rot4":15,"rot5":25,"rot6":-25,"dil1":0.975,"dil2":1.025,"dil3":1.125,"dil4":0.925,"dil5":1.075,"dil6":0.875,"rots":[-15,-5,5,15,25,-25],"dils":[0.975,1.025,1.125,0.925,1.075,0.875],"loop_number":1,"everTouched":null},{"id":"train-images","shape":"8","outlier_type":"NA","choice":3,"outlierPosition":3,"success":true,"majorityOfMostRegularShapes":"NA","rt":1558.0000000045402,"rot1":-5,"rot2":25,"rot3":-25,"rot4":-15,"rot5":5,"rot6":15,"dil1":1.125,"dil2":0.875,"dil3":0.925,"dil4":0.975,"dil5":1.075,"dil6":1.025,"rots":[-5,25,-25,-15,5,15],"dils":[1.125,0.875,0.925,0.975,1.075,1.025],"loop_number":1,"everTouched":null},{"id":"train-images","shape":"6","outlier_type":"NA","choice":4,"outlierPosition":4,"success":true,"majorityOfMostRegularShapes":"NA","rt":2180.2999999999884,"rot1":-25,"rot2":15,"rot3":5,"rot4":-15,"rot5":-5,"rot6":25,"dil1":1.125,"dil2":0.875,"dil3":0.975,"dil4":1.025,"dil5":0.925,"dil6":1.075,"rots":[-25,15,5,-15,-5,25],"dils":[1.125,0.875,0.975,1.025,0.925,1.075],"loop_number":1,"everTouched":null},{"id":"train-images","shape":"5","outlier_type":"NA","choice":4,"outlierPosition":4,"success":true,"majorityOfMostRegularShapes":"NA","rt":2803.200000002107,"rot1":-15,"rot2":-25,"rot3":5,"rot4":-5,"rot5":25,"rot6":15,"dil1":0.925,"dil2":1.075,"dil3":0.875,"dil4":1.025,"dil5":0.975,"dil6":1.125,"rots":[-15,-25,5,-5,25,15],"dils":[0.925,1.075,0.875,1.025,0.975,1.125],"loop_number":1,"everTouched":null},{"id":"train-images","shape":"1","outlier_type":"NA","choice":3,"outlierPosition":3,"success":true,"majorityOfMostRegularShapes":"NA","rt":1496.3000000061584,"rot1":5,"rot2":-25,"rot3":15,"rot4":25,"rot5":-15,"rot6":-5,"dil1":1.075,"dil2":1.025,"dil3":0.975,"dil4":1.125,"dil5":0.875,"dil6":0.925,"rots":[5,-25,15,25,-15,-5],"dils":[1.075,1.025,0.975,1.125,0.875,0.925],"loop_number":1,"everTouched":null},{"id":"train-images","shape":"9","outlier_type":"NA","choice":2,"outlierPosition":2,"success":true,"majorityOfMostRegularShapes":"NA","rt":1644.5999999996275,"rot1":-25,"rot2":5,"rot3":15,"rot4":-15,"rot5":25,"rot6":-5,"dil1":0.925,"dil2":1.075,"dil3":1.025,"dil4":0.875,"dil5":0.975,"dil6":1.125,"rots":[-25,5,15,-15,25,-5],"dils":[0.925,1.075,1.025,0.875,0.975,1.125],"loop_number":1,"everTouched":null},{"id":"train-images","shape":"10","outlier_type":"NA","choice":3,"outlierPosition":3,"success":true,"majorityOfMostRegularShapes":"NA","rt":1322.8999999992084,"rot1":5,"rot2":15,"rot3":-15,"rot4":25,"rot5":-5,"rot6":-25,"dil1":1.075,"dil2":0.925,"dil3":1.025,"dil4":0.875,"dil5":0.975,"dil6":1.125,"rots":[5,15,-15,25,-5,-25],"dils":[1.075,0.925,1.025,0.875,0.975,1.125],"loop_number":1,"everTouched":null},{"id":"train-images","shape":"2","outlier_type":"NA","choice":0,"outlierPosition":0,"success":true,"majorityOfMostRegularShapes":"NA","rt":1254.9999999973807,"rot1":5,"rot2":-25,"rot3":15,"rot4":-15,"rot5":-5,"rot6":25,"dil1":0.925,"dil2":0.875,"dil3":1.025,"dil4":0.975,"dil5":1.075,"dil6":1.125,"rots":[5,-25,15,-15,-5,25],"dils":[0.925,0.875,1.025,0.975,1.075,1.125],"loop_number":1,"everTouched":null},{"id":"train-images","shape":"7","outlier_type":"NA","choice":4,"outlierPosition":4,"success":true,"majorityOfMostRegularShapes":"NA","rt":1427.0000000033178,"rot1":-5,"rot2":-15,"rot3":25,"rot4":-25,"rot5":15,"rot6":5,"dil1":1.025,"dil2":1.075,"dil3":1.125,"dil4":0.975,"dil5":0.875,"dil6":0.925,"rots":[-5,-15,25,-25,15,5],"dils":[1.025,1.075,1.125,0.975,0.875,0.925],"loop_number":1,"everTouched":null}],"trial_type":"oddball-grid-image","trial_index":1,"time_elapsed":579216,"internal_node_id":"0.0-1.0","ID":"hwuekexp5d"},{"results":[{"id":"train","shape":null,"outlier_type":null,"choice":2,"outlierPosition":2,"success":true,"majorityOfMostRegularShapes":null,"rt":1280.9999999954016,"rot1":15,"rot2":25,"rot3":-25,"rot4":5,"rot5":-15,"rot6":-5,"dil1":0.975,"dil2":0.875,"dil3":1.075,"dil4":0.925,"dil5":1.025,"dil6":1.125,"rots":[15,25,-25,5,-15,-5],"dils":[0.975,0.875,1.075,0.925,1.025,1.125],"loop_number":1,"everTouched":null},{"id":"train","shape":null,"outlier_type":null,"choice":2,"outlierPosition":2,"success":true,"majorityOfMostRegularShapes":null,"rt":1740.799999999581,"rot1":-5,"rot2":-25,"rot3":-15,"rot4":5,"rot5":25,"rot6":15,"dil1":1.025,"dil2":1.075,"dil3":0.875,"dil4":0.975,"dil5":0.925,"dil6":1.125,"rots":[-5,-25,-15,5,25,15],"dils":[1.025,1.075,0.875,0.975,0.925,1.125],"loop_number":1,"everTouched":null},{"id":"train","shape":null,"outlier_type":null,"choice":1,"outlierPosition":1,"success":true,"majorityOfMostRegularShapes":null,"rt":1990.4000000024098,"rot1":-15,"rot2":15,"rot3":-25,"rot4":5,"rot5":25,"rot6":-5,"dil1":0.875,"dil2":1.075,"dil3":0.975,"dil4":1.025,"dil5":1.125,"dil6":0.925,"rots":[-15,15,-25,5,25,-5],"dils":[0.875,1.075,0.975,1.025,1.125,0.925],"loop_number":1,"everTouched":null},{"id":"train","shape":null,"outlier_type":null,"choice":4,"outlierPosition":4,"success":true,"majorityOfMostRegularShapes":null,"rt":1417.6000000006752,"rot1":-5,"rot2":-25,"rot3":5,"rot4":25,"rot5":15,"rot6":-15,"dil1":1.075,"dil2":0.925,"dil3":1.025,"dil4":1.125,"dil5":0.875,"dil6":0.975,"rots":[-5,-25,5,25,15,-15],"dils":[1.075,0.925,1.025,1.125,0.875,0.975],"loop_number":1,"everTouched":null},{"id":"train","shape":null,"outlier_type":null,"choice":3,"outlierPosition":3,"success":true,"majorityOfMostRegularShapes":null,"rt":2433.1999999994878,"rot1":15,"rot2":25,"rot3":-25,"rot4":5,"rot5":-5,"rot6":-15,"dil1":1.075,"dil2":1.125,"dil3":0.975,"dil4":1.025,"dil5":0.925,"dil6":0.875,"rots":[15,25,-25,5,-5,-15],"dils":[1.075,1.125,0.975,1.025,0.925,0.875],"loop_number":1,"everTouched":null},{"id":"train","shape":null,"outlier_type":null,"choice":5,"outlierPosition":5,"success":true,"majorityOfMostRegularShapes":null,"rt":1805.900000006659,"rot1":-25,"rot2":25,"rot3":-15,"rot4":-5,"rot5":15,"rot6":5,"dil1":0.975,"dil2":0.925,"dil3":1.075,"dil4":1.025,"dil5":0.875,"dil6":1.125,"rots":[-25,25,-15,-5,15,5],"dils":[0.975,0.925,1.075,1.025,0.875,1.125],"loop_number":1,"everTouched":null}],"desiredDistance":0.3,"trial_type":"oddball-grid-easy","trial_index":2,"time_elapsed":600338,"internal_node_id":"0.0-2.0","ID":"hwuekexp5d"},{"results":[{"id":"test","shape":"random","outlier_type":3,"choice":5,"outlierPosition":0,"success":false,"majorityOfMostRegularShapes":true,"rt":7212.599999998929,"rot1":-15,"rot2":5,"rot3":15,"rot4":-5,"rot5":25,"rot6":-25,"dil1":0.875,"dil2":1.075,"dil3":0.925,"dil4":1.025,"dil5":0.975,"dil6":1.125,"rots":[-15,5,15,-5,25,-25],"dils":[0.875,1.075,0.925,1.025,0.975,1.125],"loop_number":"NA","everTouched":null},{"id":"test","shape":"trapezoid","outlier_type":2,"choice":0,"outlierPosition":2,"success":false,"majorityOfMostRegularShapes":true,"rt":2784.299999999348,"rot1":-5,"rot2":-25,"rot3":5,"rot4":25,"rot5":15,"rot6":-15,"dil1":0.925,"dil2":1.025,"dil3":0.875,"dil4":1.125,"dil5":0.975,"dil6":1.075,"rots":[-5,-25,5,25,15,-15],"dils":[0.925,1.025,0.875,1.125,0.975,1.075],"loop_number":"NA","everTouched":null},{"id":"test","shape":"square","outlier_type":0,"choice":3,"outlierPosition":3,"success":true,"majorityOfMostRegularShapes":true,"rt":3740.700000002107,"rot1":5,"rot2":-5,"rot3":25,"rot4":15,"rot5":-15,"rot6":-25,"dil1":1.075,"dil2":1.125,"dil3":1.025,"dil4":0.875,"dil5":0.925,"dil6":0.975,"rots":[5,-5,25,15,-15,-25],"dils":[1.075,1.125,1.025,0.875,0.925,0.975],"loop_number":"NA","everTouched":null},{"id":"test","shape":"rectangle","outlier_type":3,"choice":1,"outlierPosition":1,"success":true,"majorityOfMostRegularShapes":true,"rt":2593.0000000007567,"rot1":5,"rot2":-15,"rot3":25,"rot4":-5,"rot5":-25,"rot6":15,"dil1":0.975,"dil2":0.925,"dil3":1.125,"dil4":0.875,"dil5":1.025,"dil6":1.075,"rots":[5,-15,25,-5,-25,15],"dils":[0.975,0.925,1.125,0.875,1.025,1.075],"loop_number":"NA","everTouched":null},{"id":"test","shape":"hinge","outlier_type":1,"choice":3,"outlierPosition":3,"success":true,"majorityOfMostRegularShapes":true,"rt":7598.7999999997555,"rot1":25,"rot2":5,"rot3":-5,"rot4":-25,"rot5":15,"rot6":-15,"dil1":1.025,"dil2":0.925,"dil3":1.075,"dil4":1.125,"dil5":0.975,"dil6":0.875,"rots":[25,5,-5,-25,15,-15],"dils":[1.025,0.925,1.075,1.125,0.975,0.875],"loop_number":"NA","everTouched":null},{"id":"test","shape":"rightKite","outlier_type":0,"choice":4,"outlierPosition":5,"success":false,"majorityOfMostRegularShapes":true,"rt":4879.300000000512,"rot1":25,"rot2":5,"rot3":-25,"rot4":-15,"rot5":15,"rot6":-5,"dil1":0.975,"dil2":1.025,"dil3":1.125,"dil4":0.925,"dil5":1.075,"dil6":0.875,"rots":[25,5,-25,-15,15,-5],"dils":[0.975,1.025,1.125,0.925,1.075,0.875],"loop_number":"NA","everTouched":null},{"id":"test","shape":"rustedHinge","outlier_type":1,"choice":2,"outlierPosition":2,"success":true,"majorityOfMostRegularShapes":true,"rt":3412.899999995716,"rot1":5,"rot2":15,"rot3":-15,"rot4":-5,"rot5":25,"rot6":-25,"dil1":0.925,"dil2":1.075,"dil3":0.875,"dil4":1.025,"dil5":0.975,"dil6":1.125,"rots":[5,15,-15,-5,25,-25],"dils":[0.925,1.075,0.875,1.025,0.975,1.125],"loop_number":"NA","everTouched":null},{"id":"test","shape":"parallelogram","outlier_type":0,"choice":1,"outlierPosition":1,"success":true,"majorityOfMostRegularShapes":true,"rt":4350.500000000466,"rot1":-25,"rot2":25,"rot3":-15,"rot4":15,"rot5":5,"rot6":-5,"dil1":1.025,"dil2":1.075,"dil3":1.125,"dil4":0.925,"dil5":0.975,"dil6":0.875,"rots":[-25,25,-15,15,5,-5],"dils":[1.025,1.075,1.125,0.925,0.975,0.875],"loop_number":"NA","everTouched":null},{"id":"test","shape":"kite","outlier_type":1,"choice":4,"outlierPosition":4,"success":true,"majorityOfMostRegularShapes":true,"rt":6639.100000000326,"rot1":25,"rot2":-5,"rot3":15,"rot4":-25,"rot5":-15,"rot6":5,"dil1":0.875,"dil2":1.025,"dil3":0.975,"dil4":0.925,"dil5":1.125,"dil6":1.075,"rots":[25,-5,15,-25,-15,5],"dils":[0.875,1.025,0.975,0.925,1.125,1.075],"loop_number":"NA","everTouched":null},{"id":"test","shape":"isoTrapezoid","outlier_type":2,"choice":2,"outlierPosition":2,"success":true,"majorityOfMostRegularShapes":true,"rt":5782.099999996717,"rot1":25,"rot2":15,"rot3":-5,"rot4":5,"rot5":-25,"rot6":-15,"dil1":0.975,"dil2":1.025,"dil3":1.075,"dil4":0.925,"dil5":0.875,"dil6":1.125,"rots":[25,15,-5,5,-25,-15],"dils":[0.975,1.025,1.075,0.925,0.875,1.125],"loop_number":"NA","everTouched":null},{"id":"test","shape":"rustedHinge","outlier_type":0,"choice":1,"outlierPosition":1,"success":true,"majorityOfMostRegularShapes":true,"rt":5826.000000000931,"rot1":-25,"rot2":15,"rot3":25,"rot4":-15,"rot5":-5,"rot6":5,"dil1":0.975,"dil2":0.875,"dil3":1.125,"dil4":0.925,"dil5":1.025,"dil6":1.075,"rots":[-25,15,25,-15,-5,5],"dils":[0.975,0.875,1.125,0.925,1.025,1.075],"loop_number":"NA","everTouched":null},{"id":"test","shape":"hinge","outlier_type":2,"choice":5,"outlierPosition":5,"success":true,"majorityOfMostRegularShapes":true,"rt":1989.399999998568,"rot1":-25,"rot2":-5,"rot3":-15,"rot4":5,"rot5":25,"rot6":15,"dil1":0.875,"dil2":1.075,"dil3":0.975,"dil4":1.025,"dil5":1.125,"dil6":0.925,"rots":[-25,-5,-15,5,25,15],"dils":[0.875,1.075,0.975,1.025,1.125,0.925],"loop_number":"NA","everTouched":null},{"id":"test","shape":"rightKite","outlier_type":1,"choice":4,"outlierPosition":4,"success":true,"majorityOfMostRegularShapes":true,"rt":6749.700000000303,"rot1":5,"rot2":-5,"rot3":25,"rot4":-25,"rot5":15,"rot6":-15,"dil1":0.925,"dil2":0.875,"dil3":1.125,"dil4":0.975,"dil5":1.075,"dil6":1.025,"rots":[5,-5,25,-25,15,-15],"dils":[0.925,0.875,1.125,0.975,1.075,1.025],"loop_number":"NA","everTouched":null},{"id":"test","shape":"isoTrapezoid","outlier_type":3,"choice":5,"outlierPosition":5,"success":true,"majorityOfMostRegularShapes":true,"rt":3800.999999999476,"rot1":-5,"rot2":15,"rot3":-15,"rot4":-25,"rot5":25,"rot6":5,"dil1":0.925,"dil2":1.125,"dil3":1.075,"dil4":1.025,"dil5":0.875,"dil6":0.975,"rots":[-5,15,-15,-25,25,5],"dils":[0.925,1.125,1.075,1.025,0.875,0.975],"loop_number":"NA","everTouched":null},{"id":"test","shape":"rectangle","outlier_type":0,"choice":0,"outlierPosition":0,"success":true,"majorityOfMostRegularShapes":true,"rt":2495.999999999185,"rot1":5,"rot2":-25,"rot3":-15,"rot4":15,"rot5":25,"rot6":-5,"dil1":0.875,"dil2":1.075,"dil3":0.975,"dil4":1.025,"dil5":0.925,"dil6":1.125,"rots":[5,-25,-15,15,25,-5],"dils":[0.875,1.075,0.975,1.025,0.925,1.125],"loop_number":"NA","everTouched":null},{"id":"test","shape":"parallelogram","outlier_type":2,"choice":5,"outlierPosition":5,"success":true,"majorityOfMostRegularShapes":true,"rt":4074.5999999999185,"rot1":15,"rot2":25,"rot3":-15,"rot4":5,"rot5":-5,"rot6":-25,"dil1":0.975,"dil2":0.925,"dil3":1.025,"dil4":0.875,"dil5":1.075,"dil6":1.125,"rots":[15,25,-15,5,-5,-25],"dils":[0.975,0.925,1.025,0.875,1.075,1.125],"loop_number":"NA","everTouched":null},{"id":"test","shape":"isoTrapezoid","outlier_type":1,"choice":4,"outlierPosition":4,"success":true,"majorityOfMostRegularShapes":true,"rt":3569.8000000047614,"rot1":25,"rot2":-25,"rot3":-5,"rot4":5,"rot5":15,"rot6":-15,"dil1":1.025,"dil2":0.975,"dil3":0.875,"dil4":1.075,"dil5":1.125,"dil6":0.925,"rots":[25,-25,-5,5,15,-15],"dils":[1.025,0.975,0.875,1.075,1.125,0.925],"loop_number":"NA","everTouched":null},{"id":"test","shape":"trapezoid","outlier_type":1,"choice":2,"outlierPosition":2,"success":true,"majorityOfMostRegularShapes":true,"rt":2486.9000000035157,"rot1":25,"rot2":-25,"rot3":5,"rot4":15,"rot5":-15,"rot6":-5,"dil1":1.075,"dil2":0.875,"dil3":1.025,"dil4":1.125,"dil5":0.925,"dil6":0.975,"rots":[25,-25,5,15,-15,-5],"dils":[1.075,0.875,1.025,1.125,0.925,0.975],"loop_number":"NA","everTouched":null},{"id":"test","shape":"losange","outlier_type":2,"choice":4,"outlierPosition":4,"success":true,"majorityOfMostRegularShapes":true,"rt":1864.900000000489,"rot1":25,"rot2":-15,"rot3":15,"rot4":-5,"rot5":-25,"rot6":5,"dil1":1.025,"dil2":1.125,"dil3":0.975,"dil4":1.075,"dil5":0.875,"dil6":0.925,"rots":[25,-15,15,-5,-25,5],"dils":[1.025,1.125,0.975,1.075,0.875,0.925],"loop_number":"NA","everTouched":null},{"id":"test","shape":"kite","outlier_type":3,"choice":2,"outlierPosition":4,"success":false,"majorityOfMostRegularShapes":true,"rt":5345.399999998335,"rot1":-5,"rot2":25,"rot3":-15,"rot4":-25,"rot5":15,"rot6":5,"dil1":0.925,"dil2":1.125,"dil3":0.975,"dil4":1.075,"dil5":1.025,"dil6":0.875,"rots":[-5,25,-15,-25,15,5],"dils":[0.925,1.125,0.975,1.075,1.025,0.875],"loop_number":"NA","everTouched":null},{"id":"test","shape":"random","outlier_type":0,"choice":3,"outlierPosition":2,"success":false,"majorityOfMostRegularShapes":true,"rt":17452.30000000447,"rot1":15,"rot2":5,"rot3":-15,"rot4":-25,"rot5":25,"rot6":-5,"dil1":1.075,"dil2":0.925,"dil3":0.875,"dil4":0.975,"dil5":1.125,"dil6":1.025,"rots":[15,5,-15,-25,25,-5],"dils":[1.075,0.925,0.875,0.975,1.125,1.025],"loop_number":"NA","everTouched":null},{"id":"test","shape":"rustedHinge","outlier_type":2,"choice":3,"outlierPosition":3,"success":true,"majorityOfMostRegularShapes":true,"rt":14013.399999996182,"rot1":-5,"rot2":5,"rot3":-25,"rot4":-15,"rot5":25,"rot6":15,"dil1":0.975,"dil2":1.075,"dil3":0.875,"dil4":1.125,"dil5":1.025,"dil6":0.925,"rots":[-5,5,-25,-15,25,15],"dils":[0.975,1.075,0.875,1.125,1.025,0.925],"loop_number":"NA","everTouched":null},{"id":"test","shape":"parallelogram","outlier_type":1,"choice":0,"outlierPosition":0,"success":true,"majorityOfMostRegularShapes":true,"rt":2042.4000000057276,"rot1":-5,"rot2":-25,"rot3":-15,"rot4":25,"rot5":5,"rot6":15,"dil1":0.975,"dil2":1.125,"dil3":1.075,"dil4":0.875,"dil5":1.025,"dil6":0.925,"rots":[-5,-25,-15,25,5,15],"dils":[0.975,1.125,1.075,0.875,1.025,0.925],"loop_number":"NA","everTouched":null},{"id":"test","shape":"losange","outlier_type":3,"choice":1,"outlierPosition":1,"success":true,"majorityOfMostRegularShapes":true,"rt":2606.499999994412,"rot1":25,"rot2":15,"rot3":-15,"rot4":-25,"rot5":5,"rot6":-5,"dil1":1.125,"dil2":1.075,"dil3":0.925,"dil4":0.875,"dil5":0.975,"dil6":1.025,"rots":[25,15,-15,-25,5,-5],"dils":[1.125,1.075,0.925,0.875,0.975,1.025],"loop_number":"NA","everTouched":null},{"id":"test","shape":"trapezoid","outlier_type":0,"choice":5,"outlierPosition":5,"success":true,"majorityOfMostRegularShapes":true,"rt":10187.799999999697,"rot1":25,"rot2":-15,"rot3":-5,"rot4":5,"rot5":15,"rot6":-25,"dil1":0.875,"dil2":1.025,"dil3":0.925,"dil4":0.975,"dil5":1.125,"dil6":1.075,"rots":[25,-15,-5,5,15,-25],"dils":[0.875,1.025,0.925,0.975,1.125,1.075],"loop_number":"NA","everTouched":null},{"id":"test","shape":"rustedHinge","outlier_type":3,"choice":2,"outlierPosition":2,"success":true,"majorityOfMostRegularShapes":true,"rt":4068.200000001525,"rot1":5,"rot2":25,"rot3":15,"rot4":-15,"rot5":-5,"rot6":-25,"dil1":1.025,"dil2":1.075,"dil3":0.925,"dil4":0.875,"dil5":0.975,"dil6":1.125,"rots":[5,25,15,-15,-5,-25],"dils":[1.025,1.075,0.925,0.875,0.975,1.125],"loop_number":"NA","everTouched":null},{"id":"test","shape":"hinge","outlier_type":0,"choice":0,"outlierPosition":0,"success":true,"majorityOfMostRegularShapes":true,"rt":15916.400000001886,"rot1":-25,"rot2":5,"rot3":15,"rot4":25,"rot5":-5,"rot6":-15,"dil1":0.925,"dil2":1.075,"dil3":1.125,"dil4":1.025,"dil5":0.975,"dil6":0.875,"rots":[-25,5,15,25,-5,-15],"dils":[0.925,1.075,1.125,1.025,0.975,0.875],"loop_number":"NA","everTouched":null},{"id":"test","shape":"random","outlier_type":2,"choice":2,"outlierPosition":2,"success":true,"majorityOfMostRegularShapes":true,"rt":7152.999999998428,"rot1":25,"rot2":-5,"rot3":-25,"rot4":5,"rot5":15,"rot6":-15,"dil1":1.025,"dil2":0.975,"dil3":0.875,"dil4":1.075,"dil5":1.125,"dil6":0.925,"rots":[25,-5,-25,5,15,-15],"dils":[1.025,0.975,0.875,1.075,1.125,0.925],"loop_number":"NA","everTouched":null},{"id":"test","shape":"square","outlier_type":3,"choice":3,"outlierPosition":3,"success":true,"majorityOfMostRegularShapes":true,"rt":2743.300000001909,"rot1":-25,"rot2":-5,"rot3":15,"rot4":5,"rot5":25,"rot6":-15,"dil1":1.075,"dil2":0.925,"dil3":1.025,"dil4":1.125,"dil5":0.975,"dil6":0.875,"rots":[-25,-5,15,5,25,-15],"dils":[1.075,0.925,1.025,1.125,0.975,0.875],"loop_number":"NA","everTouched":null},{"id":"test","shape":"rectangle","outlier_type":2,"choice":0,"outlierPosition":0,"success":true,"majorityOfMostRegularShapes":true,"rt":2162.1999999988475,"rot1":5,"rot2":-15,"rot3":-25,"rot4":-5,"rot5":15,"rot6":25,"dil1":1.025,"dil2":1.075,"dil3":1.125,"dil4":0.925,"dil5":0.975,"dil6":0.875,"rots":[5,-15,-25,-5,15,25],"dils":[1.025,1.075,1.125,0.925,0.975,0.875],"loop_number":"NA","everTouched":null},{"id":"test","shape":"trapezoid","outlier_type":3,"choice":2,"outlierPosition":2,"success":true,"majorityOfMostRegularShapes":true,"rt":5204.8999999969965,"rot1":15,"rot2":25,"rot3":-15,"rot4":-25,"rot5":5,"rot6":-5,"dil1":0.975,"dil2":0.925,"dil3":1.025,"dil4":1.125,"dil5":1.075,"dil6":0.875,"rots":[15,25,-15,-25,5,-5],"dils":[0.975,0.925,1.025,1.125,1.075,0.875],"loop_number":"NA","everTouched":null},{"id":"test","shape":"random","outlier_type":1,"choice":4,"outlierPosition":3,"success":false,"majorityOfMostRegularShapes":true,"rt":3356.999999996333,"rot1":15,"rot2":25,"rot3":-15,"rot4":5,"rot5":-25,"rot6":-5,"dil1":0.875,"dil2":0.975,"dil3":1.125,"dil4":1.025,"dil5":0.925,"dil6":1.075,"rots":[15,25,-15,5,-25,-5],"dils":[0.875,0.975,1.125,1.025,0.925,1.075],"loop_number":"NA","everTouched":null},{"id":"test","shape":"kite","outlier_type":0,"choice":4,"outlierPosition":0,"success":false,"majorityOfMostRegularShapes":true,"rt":12989.700000005541,"rot1":-15,"rot2":15,"rot3":25,"rot4":5,"rot5":-25,"rot6":-5,"dil1":1.075,"dil2":1.025,"dil3":0.975,"dil4":1.125,"dil5":0.875,"dil6":0.925,"rots":[-15,15,25,5,-25,-5],"dils":[1.075,1.025,0.975,1.125,0.875,0.925],"loop_number":"NA","everTouched":null},{"id":"test","shape":"hinge","outlier_type":3,"choice":0,"outlierPosition":0,"success":true,"majorityOfMostRegularShapes":true,"rt":10780.500000000757,"rot1":25,"rot2":-25,"rot3":-5,"rot4":-15,"rot5":15,"rot6":5,"dil1":0.925,"dil2":0.975,"dil3":1.075,"dil4":1.025,"dil5":1.125,"dil6":0.875,"rots":[25,-25,-5,-15,15,5],"dils":[0.925,0.975,1.075,1.025,1.125,0.875],"loop_number":"NA","everTouched":null},{"id":"test","shape":"isoTrapezoid","outlier_type":0,"choice":3,"outlierPosition":3,"success":true,"majorityOfMostRegularShapes":true,"rt":5811.099999998987,"rot1":15,"rot2":-5,"rot3":-15,"rot4":25,"rot5":-25,"rot6":5,"dil1":0.875,"dil2":1.025,"dil3":0.975,"dil4":1.125,"dil5":0.925,"dil6":1.075,"rots":[15,-5,-15,25,-25,5],"dils":[0.875,1.025,0.975,1.125,0.925,1.075],"loop_number":"NA","everTouched":null},{"id":"test","shape":"parallelogram","outlier_type":3,"choice":0,"outlierPosition":0,"success":true,"majorityOfMostRegularShapes":true,"rt":3297.2000000008848,"rot1":-5,"rot2":15,"rot3":25,"rot4":-15,"rot5":5,"rot6":-25,"dil1":1.125,"dil2":0.875,"dil3":1.075,"dil4":1.025,"dil5":0.975,"dil6":0.925,"rots":[-5,15,25,-15,5,-25],"dils":[1.125,0.875,1.075,1.025,0.975,0.925],"loop_number":"NA","everTouched":null},{"id":"test","shape":"square","outlier_type":1,"choice":0,"outlierPosition":0,"success":true,"majorityOfMostRegularShapes":true,"rt":2597.69999999844,"rot1":25,"rot2":15,"rot3":-5,"rot4":5,"rot5":-15,"rot6":-25,"dil1":1.075,"dil2":0.975,"dil3":1.125,"dil4":1.025,"dil5":0.875,"dil6":0.925,"rots":[25,15,-5,5,-15,-25],"dils":[1.075,0.975,1.125,1.025,0.875,0.925],"loop_number":"NA","everTouched":null},{"id":"test","shape":"rightKite","outlier_type":2,"choice":0,"outlierPosition":5,"success":false,"majorityOfMostRegularShapes":true,"rt":4975.599999997939,"rot1":-15,"rot2":-5,"rot3":25,"rot4":-25,"rot5":15,"rot6":5,"dil1":1.125,"dil2":0.975,"dil3":0.925,"dil4":1.075,"dil5":1.025,"dil6":0.875,"rots":[-15,-5,25,-25,15,5],"dils":[1.125,0.975,0.925,1.075,1.025,0.875],"loop_number":"NA","everTouched":null},{"id":"test","shape":"losange","outlier_type":1,"choice":3,"outlierPosition":5,"success":false,"majorityOfMostRegularShapes":true,"rt":9204.99999999447,"rot1":15,"rot2":-5,"rot3":-15,"rot4":25,"rot5":5,"rot6":-25,"dil1":1.075,"dil2":1.025,"dil3":0.875,"dil4":0.925,"dil5":1.125,"dil6":0.975,"rots":[15,-5,-15,25,5,-25],"dils":[1.075,1.025,0.875,0.925,1.125,0.975],"loop_number":"NA","everTouched":null},{"id":"test","shape":"square","outlier_type":2,"choice":1,"outlierPosition":1,"success":true,"majorityOfMostRegularShapes":true,"rt":1703.0999999988126,"rot1":15,"rot2":-15,"rot3":25,"rot4":-5,"rot5":-25,"rot6":5,"dil1":0.975,"dil2":1.075,"dil3":1.125,"dil4":1.025,"dil5":0.925,"dil6":0.875,"rots":[15,-15,25,-5,-25,5],"dils":[0.975,1.075,1.125,1.025,0.925,0.875],"loop_number":"NA","everTouched":null},{"id":"test","shape":"rightKite","outlier_type":3,"choice":5,"outlierPosition":2,"success":false,"majorityOfMostRegularShapes":true,"rt":4083.599999998114,"rot1":-5,"rot2":25,"rot3":-15,"rot4":15,"rot5":5,"rot6":-25,"dil1":0.875,"dil2":1.125,"dil3":1.025,"dil4":0.975,"dil5":0.925,"dil6":1.075,"rots":[-5,25,-15,15,5,-25],"dils":[0.875,1.125,1.025,0.975,0.925,1.075],"loop_number":"NA","everTouched":null},{"id":"test","shape":"losange","outlier_type":0,"choice":2,"outlierPosition":2,"success":true,"majorityOfMostRegularShapes":true,"rt":18146.199999995588,"rot1":5,"rot2":-25,"rot3":-5,"rot4":25,"rot5":-15,"rot6":15,"dil1":0.875,"dil2":1.025,"dil3":0.975,"dil4":1.125,"dil5":1.075,"dil6":0.925,"rots":[5,-25,-5,25,-15,15],"dils":[0.875,1.025,0.975,1.125,1.075,0.925],"loop_number":"NA","everTouched":null},{"id":"test","shape":"kite","outlier_type":2,"choice":1,"outlierPosition":1,"success":true,"majorityOfMostRegularShapes":true,"rt":2420.9000000046217,"rot1":5,"rot2":-5,"rot3":-25,"rot4":-15,"rot5":25,"rot6":15,"dil1":1.025,"dil2":1.125,"dil3":0.875,"dil4":0.975,"dil5":0.925,"dil6":1.075,"rots":[5,-5,-25,-15,25,15],"dils":[1.025,1.125,0.875,0.975,0.925,1.075],"loop_number":"NA","everTouched":null},{"id":"test","shape":"rectangle","outlier_type":1,"choice":1,"outlierPosition":1,"success":true,"majorityOfMostRegularShapes":true,"rt":1533.4000000002561,"rot1":5,"rot2":-15,"rot3":-5,"rot4":-25,"rot5":15,"rot6":25,"dil1":1.075,"dil2":1.125,"dil3":1.025,"dil4":0.925,"dil5":0.875,"dil6":0.975,"rots":[5,-15,-5,-25,15,25],"dils":[1.075,1.125,1.025,0.925,0.875,0.975],"loop_number":"NA","everTouched":null}],"desiredDistance":0.3,"trial_type":"oddball-grid","trial_index":3,"time_elapsed":937043,"internal_node_id":"0.0-3.0","ID":"hwuekexp5d"},{"success":true,"trial_type":"fullscreen","trial_index":4,"time_elapsed":946288,"internal_node_id":"0.0-4.0","ID":"hwuekexp5d"}]