[{"success":true,"trial_type":"fullscreen","trial_index":0,"time_elapsed":3856,"internal_node_id":"0.0-0.0","ID":"ux80rzchkn"},{"results":[{"id":"train-images","shape":"2","outlier_type":"NA","choice":3,"outlierPosition":3,"success":true,"majorityOfMostRegularShapes":"NA","rt":1775.8000000030734,"rot1":5,"rot2":25,"rot3":-25,"rot4":-15,"rot5":15,"rot6":-5,"dil1":0.975,"dil2":0.875,"dil3":1.025,"dil4":1.075,"dil5":0.925,"dil6":1.125,"rots":[5,25,-25,-15,15,-5],"dils":[0.975,0.875,1.025,1.075,0.925,1.125],"loop_number":1,"everTouched":null},{"id":"train-images","shape":"3","outlier_type":"NA","choice":4,"outlierPosition":4,"success":true,"majorityOfMostRegularShapes":"NA","rt":6546.0000000020955,"rot1":15,"rot2":-15,"rot3":5,"rot4":-5,"rot5":25,"rot6":-25,"dil1":0.925,"dil2":1.025,"dil3":0.875,"dil4":1.125,"dil5":1.075,"dil6":0.975,"rots":[15,-15,5,-5,25,-25],"dils":[0.925,1.025,0.875,1.125,1.075,0.975],"loop_number":1,"everTouched":null},{"id":"train-images","shape":"9","outlier_type":"NA","choice":3,"outlierPosition":3,"success":true,"majorityOfMostRegularShapes":"NA","rt":1704.8999999969965,"rot1":-25,"rot2":-15,"rot3":5,"rot4":15,"rot5":25,"rot6":-5,"dil1":0.975,"dil2":1.025,"dil3":0.875,"dil4":0.925,"dil5":1.075,"dil6":1.125,"rots":[-25,-15,5,15,25,-5],"dils":[0.975,1.025,0.875,0.925,1.075,1.125],"loop_number":1,"everTouched":null},{"id":"train-images","shape":"8","outlier_type":"NA","choice":4,"outlierPosition":4,"success":true,"majorityOfMostRegularShapes":"NA","rt":2048.399999999674,"rot1":-15,"rot2":-25,"rot3":5,"rot4":-5,"rot5":25,"rot6":15,"dil1":1.025,"dil2":0.875,"dil3":1.075,"dil4":1.125,"dil5":0.975,"dil6":0.925,"rots":[-15,-25,5,-5,25,15],"dils":[1.025,0.875,1.075,1.125,0.975,0.925],"loop_number":1,"everTouched":null},{"id":"train-images","shape":"6","outlier_type":"NA","choice":1,"outlierPosition":1,"success":true,"majorityOfMostRegularShapes":"NA","rt":1858.8999999919906,"rot1":-25,"rot2":15,"rot3":5,"rot4":-5,"rot5":25,"rot6":-15,"dil1":0.925,"dil2":1.025,"dil3":1.125,"dil4":1.075,"dil5":0.975,"dil6":0.875,"rots":[-25,15,5,-5,25,-15],"dils":[0.925,1.025,1.125,1.075,0.975,0.875],"loop_number":1,"everTouched":null},{"id":"train-images","shape":"5","outlier_type":"NA","choice":5,"outlierPosition":5,"success":true,"majorityOfMostRegularShapes":"NA","rt":1525.500000003376,"rot1":5,"rot2":-5,"rot3":-25,"rot4":15,"rot5":25,"rot6":-15,"dil1":1.075,"dil2":1.125,"dil3":0.975,"dil4":0.925,"dil5":1.025,"dil6":0.875,"rots":[5,-5,-25,15,25,-15],"dils":[1.075,1.125,0.975,0.925,1.025,0.875],"loop_number":1,"everTouched":null},{"id":"train-images","shape":"1","outlier_type":"NA","choice":5,"outlierPosition":5,"success":true,"majorityOfMostRegularShapes":"NA","rt":1096.899999989546,"rot1":-5,"rot2":-15,"rot3":5,"rot4":25,"rot5":15,"rot6":-25,"dil1":0.925,"dil2":1.075,"dil3":0.975,"dil4":1.025,"dil5":0.875,"dil6":1.125,"rots":[-5,-15,5,25,15,-25],"dils":[0.925,1.075,0.975,1.025,0.875,1.125],"loop_number":1,"everTouched":null},{"id":"train-images","shape":"10","outlier_type":"NA","choice":5,"outlierPosition":5,"success":true,"majorityOfMostRegularShapes":"NA","rt":1330.1999999966938,"rot1":-25,"rot2":25,"rot3":15,"rot4":5,"rot5":-15,"rot6":-5,"dil1":1.025,"dil2":1.125,"dil3":0.875,"dil4":1.075,"dil5":0.975,"dil6":0.925,"rots":[-25,25,15,5,-15,-5],"dils":[1.025,1.125,0.875,1.075,0.975,0.925],"loop_number":1,"everTouched":null},{"id":"train-images","shape":"4","outlier_type":"NA","choice":5,"outlierPosition":5,"success":true,"majorityOfMostRegularShapes":"NA","rt":1295.800000007148,"rot1":-15,"rot2":5,"rot3":-25,"rot4":-5,"rot5":25,"rot6":15,"dil1":1.075,"dil2":0.875,"dil3":1.025,"dil4":0.975,"dil5":1.125,"dil6":0.925,"rots":[-15,5,-25,-5,25,15],"dils":[1.075,0.875,1.025,0.975,1.125,0.925],"loop_number":1,"everTouched":null},{"id":"train-images","shape":"7","outlier_type":"NA","choice":4,"outlierPosition":4,"success":true,"majorityOfMostRegularShapes":"NA","rt":1432.1000000054482,"rot1":-15,"rot2":-5,"rot3":25,"rot4":15,"rot5":5,"rot6":-25,"dil1":1.025,"dil2":1.125,"dil3":0.925,"dil4":1.075,"dil5":0.975,"dil6":0.875,"rots":[-15,-5,25,15,5,-25],"dils":[1.025,1.125,0.925,1.075,0.975,0.875],"loop_number":1,"everTouched":null}],"trial_type":"oddball-grid-image","trial_index":1,"time_elapsed":60923,"internal_node_id":"0.0-1.0","ID":"ux80rzchkn"},{"results":[{"id":"train","shape":null,"outlier_type":null,"choice":5,"outlierPosition":5,"success":true,"majorityOfMostRegularShapes":null,"rt":1347.3999999987427,"rot1":15,"rot2":-5,"rot3":5,"rot4":-25,"rot5":25,"rot6":-15,"dil1":1.075,"dil2":1.025,"dil3":0.875,"dil4":0.975,"dil5":0.925,"dil6":1.125,"rots":[15,-5,5,-25,25,-15],"dils":[1.075,1.025,0.875,0.975,0.925,1.125],"loop_number":1,"everTouched":null},{"id":"train","shape":null,"outlier_type":null,"choice":1,"outlierPosition":1,"success":true,"majorityOfMostRegularShapes":null,"rt":3146.8000000022585,"rot1":5,"rot2":15,"rot3":-5,"rot4":25,"rot5":-15,"rot6":-25,"dil1":1.025,"dil2":1.075,"dil3":0.975,"dil4":0.925,"dil5":0.875,"dil6":1.125,"rots":[5,15,-5,25,-15,-25],"dils":[1.025,1.075,0.975,0.925,0.875,1.125],"loop_number":1,"everTouched":null},{"id":"train","shape":null,"outlier_type":null,"choice":5,"outlierPosition":5,"success":true,"majorityOfMostRegularShapes":null,"rt":4086.4999999903375,"rot1":15,"rot2":-15,"rot3":5,"rot4":25,"rot5":-5,"rot6":-25,"dil1":1.025,"dil2":0.875,"dil3":0.925,"dil4":0.975,"dil5":1.075,"dil6":1.125,"rots":[15,-15,5,25,-5,-25],"dils":[1.025,0.875,0.925,0.975,1.075,1.125],"loop_number":1,"everTouched":null},{"id":"train","shape":null,"outlier_type":null,"choice":2,"outlierPosition":2,"success":true,"majorityOfMostRegularShapes":null,"rt":1513.5000000009313,"rot1":5,"rot2":-25,"rot3":15,"rot4":-15,"rot5":-5,"rot6":25,"dil1":0.875,"dil2":0.975,"dil3":0.925,"dil4":1.025,"dil5":1.075,"dil6":1.125,"rots":[5,-25,15,-15,-5,25],"dils":[0.875,0.975,0.925,1.025,1.075,1.125],"loop_number":1,"everTouched":null},{"id":"train","shape":null,"outlier_type":null,"choice":1,"outlierPosition":1,"success":true,"majorityOfMostRegularShapes":null,"rt":1962.4000000039814,"rot1":25,"rot2":-15,"rot3":-25,"rot4":15,"rot5":5,"rot6":-5,"dil1":0.875,"dil2":1.025,"dil3":1.075,"dil4":1.125,"dil5":0.975,"dil6":0.925,"rots":[25,-15,-25,15,5,-5],"dils":[0.875,1.025,1.075,1.125,0.975,0.925],"loop_number":1,"everTouched":null},{"id":"train","shape":null,"outlier_type":null,"choice":1,"outlierPosition":1,"success":true,"majorityOfMostRegularShapes":null,"rt":2099.3000000016764,"rot1":-25,"rot2":-5,"rot3":25,"rot4":-15,"rot5":5,"rot6":15,"dil1":0.875,"dil2":1.125,"dil3":1.075,"dil4":0.925,"dil5":1.025,"dil6":0.975,"rots":[-25,-5,25,-15,5,15],"dils":[0.875,1.125,1.075,0.925,1.025,0.975],"loop_number":1,"everTouched":null}],"desiredDistance":0.3,"trial_type":"oddball-grid-easy","trial_index":2,"time_elapsed":87816,"internal_node_id":"0.0-2.0","ID":"ux80rzchkn"},{"results":[{"id":"test","shape":"rustedHinge","outlier_type":3,"choice":0,"outlierPosition":0,"success":true,"majorityOfMostRegularShapes":true,"rt":7605.999999999767,"rot1":5,"rot2":-25,"rot3":-15,"rot4":15,"rot5":25,"rot6":-5,"dil1":0.925,"dil2":0.975,"dil3":1.075,"dil4":1.125,"dil5":0.875,"dil6":1.025,"rots":[5,-25,-15,15,25,-5],"dils":[0.925,0.975,1.075,1.125,0.875,1.025],"loop_number":"NA","everTouched":null},{"id":"test","shape":"parallelogram","outlier_type":2,"choice":5,"outlierPosition":3,"success":false,"majorityOfMostRegularShapes":true,"rt":2517.5000000017462,"rot1":25,"rot2":15,"rot3":5,"rot4":-5,"rot5":-15,"rot6":-25,"dil1":0.925,"dil2":1.125,"dil3":0.875,"dil4":1.025,"dil5":0.975,"dil6":1.075,"rots":[25,15,5,-5,-15,-25],"dils":[0.925,1.125,0.875,1.025,0.975,1.075],"loop_number":"NA","everTouched":null},{"id":"test","shape":"rightKite","outlier_type":0,"choice":3,"outlierPosition":3,"success":true,"majorityOfMostRegularShapes":true,"rt":18635.39999999921,"rot1":-5,"rot2":25,"rot3":-15,"rot4":-25,"rot5":5,"rot6":15,"dil1":0.975,"dil2":0.875,"dil3":1.025,"dil4":1.125,"dil5":0.925,"dil6":1.075,"rots":[-5,25,-15,-25,5,15],"dils":[0.975,0.875,1.025,1.125,0.925,1.075],"loop_number":"NA","everTouched":null},{"id":"test","shape":"kite","outlier_type":1,"choice":3,"outlierPosition":0,"success":false,"majorityOfMostRegularShapes":true,"rt":6953.300000008312,"rot1":25,"rot2":-15,"rot3":-25,"rot4":15,"rot5":-5,"rot6":5,"dil1":0.975,"dil2":1.125,"dil3":1.075,"dil4":0.925,"dil5":0.875,"dil6":1.025,"rots":[25,-15,-25,15,-5,5],"dils":[0.975,1.125,1.075,0.925,0.875,1.025],"loop_number":"NA","everTouched":null},{"id":"test","shape":"rectangle","outlier_type":2,"choice":1,"outlierPosition":1,"success":true,"majorityOfMostRegularShapes":true,"rt":4526.900000011665,"rot1":-25,"rot2":-15,"rot3":-5,"rot4":25,"rot5":5,"rot6":15,"dil1":0.925,"dil2":0.875,"dil3":1.075,"dil4":1.125,"dil5":1.025,"dil6":0.975,"rots":[-25,-15,-5,25,5,15],"dils":[0.925,0.875,1.075,1.125,1.025,0.975],"loop_number":"NA","everTouched":null},{"id":"test","shape":"isoTrapezoid","outlier_type":1,"choice":4,"outlierPosition":4,"success":true,"majorityOfMostRegularShapes":true,"rt":8315.099999992526,"rot1":-25,"rot2":-15,"rot3":-5,"rot4":15,"rot5":25,"rot6":5,"dil1":1.075,"dil2":0.925,"dil3":0.875,"dil4":1.125,"dil5":1.025,"dil6":0.975,"rots":[-25,-15,-5,15,25,5],"dils":[1.075,0.925,0.875,1.125,1.025,0.975],"loop_number":"NA","everTouched":null},{"id":"test","shape":"parallelogram","outlier_type":0,"choice":5,"outlierPosition":2,"success":false,"majorityOfMostRegularShapes":true,"rt":17179.49999999837,"rot1":15,"rot2":-5,"rot3":25,"rot4":-25,"rot5":5,"rot6":-15,"dil1":1.075,"dil2":0.975,"dil3":0.875,"dil4":0.925,"dil5":1.025,"dil6":1.125,"rots":[15,-5,25,-25,5,-15],"dils":[1.075,0.975,0.875,0.925,1.025,1.125],"loop_number":"NA","everTouched":null},{"id":"test","shape":"losange","outlier_type":2,"choice":0,"outlierPosition":0,"success":true,"majorityOfMostRegularShapes":true,"rt":6470.499999995809,"rot1":-15,"rot2":-5,"rot3":-25,"rot4":5,"rot5":15,"rot6":25,"dil1":1.075,"dil2":0.875,"dil3":0.925,"dil4":1.125,"dil5":0.975,"dil6":1.025,"rots":[-15,-5,-25,5,15,25],"dils":[1.075,0.875,0.925,1.125,0.975,1.025],"loop_number":"NA","everTouched":null},{"id":"test","shape":"trapezoid","outlier_type":1,"choice":1,"outlierPosition":1,"success":true,"majorityOfMostRegularShapes":true,"rt":8198.099999994156,"rot1":-15,"rot2":-5,"rot3":15,"rot4":25,"rot5":5,"rot6":-25,"dil1":1.125,"dil2":0.975,"dil3":1.025,"dil4":0.875,"dil5":0.925,"dil6":1.075,"rots":[-15,-5,15,25,5,-25],"dils":[1.125,0.975,1.025,0.875,0.925,1.075],"loop_number":"NA","everTouched":null},{"id":"test","shape":"random","outlier_type":2,"choice":5,"outlierPosition":5,"success":true,"majorityOfMostRegularShapes":true,"rt":11118.09999999241,"rot1":5,"rot2":15,"rot3":-25,"rot4":25,"rot5":-15,"rot6":-5,"dil1":1.125,"dil2":1.075,"dil3":1.025,"dil4":0.925,"dil5":0.875,"dil6":0.975,"rots":[5,15,-25,25,-15,-5],"dils":[1.125,1.075,1.025,0.925,0.875,0.975],"loop_number":"NA","everTouched":null},{"id":"test","shape":"losange","outlier_type":1,"choice":2,"outlierPosition":2,"success":true,"majorityOfMostRegularShapes":true,"rt":2203.699999998207,"rot1":-25,"rot2":-15,"rot3":-5,"rot4":15,"rot5":25,"rot6":5,"dil1":1.125,"dil2":0.925,"dil3":0.875,"dil4":0.975,"dil5":1.075,"dil6":1.025,"rots":[-25,-15,-5,15,25,5],"dils":[1.125,0.925,0.875,0.975,1.075,1.025],"loop_number":"NA","everTouched":null},{"id":"test","shape":"isoTrapezoid","outlier_type":3,"choice":4,"outlierPosition":2,"success":false,"majorityOfMostRegularShapes":true,"rt":21327.000000004773,"rot1":25,"rot2":-15,"rot3":5,"rot4":-5,"rot5":-25,"rot6":15,"dil1":1.125,"dil2":0.975,"dil3":1.075,"dil4":0.875,"dil5":0.925,"dil6":1.025,"rots":[25,-15,5,-5,-25,15],"dils":[1.125,0.975,1.075,0.875,0.925,1.025],"loop_number":"NA","everTouched":null},{"id":"test","shape":"parallelogram","outlier_type":1,"choice":3,"outlierPosition":3,"success":true,"majorityOfMostRegularShapes":true,"rt":4466.000000000349,"rot1":15,"rot2":-5,"rot3":-25,"rot4":25,"rot5":-15,"rot6":5,"dil1":1.025,"dil2":0.975,"dil3":1.075,"dil4":0.875,"dil5":1.125,"dil6":0.925,"rots":[15,-5,-25,25,-15,5],"dils":[1.025,0.975,1.075,0.875,1.125,0.925],"loop_number":"NA","everTouched":null},{"id":"test","shape":"isoTrapezoid","outlier_type":2,"choice":0,"outlierPosition":0,"success":true,"majorityOfMostRegularShapes":true,"rt":8029.200000004494,"rot1":-15,"rot2":25,"rot3":15,"rot4":-25,"rot5":5,"rot6":-5,"dil1":1.075,"dil2":0.975,"dil3":0.875,"dil4":1.025,"dil5":1.125,"dil6":0.925,"rots":[-15,25,15,-25,5,-5],"dils":[1.075,0.975,0.875,1.025,1.125,0.925],"loop_number":"NA","everTouched":null},{"id":"test","shape":"random","outlier_type":1,"choice":1,"outlierPosition":0,"success":false,"majorityOfMostRegularShapes":true,"rt":14043.09999999532,"rot1":-5,"rot2":-15,"rot3":25,"rot4":5,"rot5":15,"rot6":-25,"dil1":1.075,"dil2":1.025,"dil3":0.925,"dil4":1.125,"dil5":0.975,"dil6":0.875,"rots":[-5,-15,25,5,15,-25],"dils":[1.075,1.025,0.925,1.125,0.975,0.875],"loop_number":"NA","everTouched":null},{"id":"test","shape":"square","outlier_type":3,"choice":5,"outlierPosition":5,"success":true,"majorityOfMostRegularShapes":true,"rt":2402.799999996205,"rot1":-25,"rot2":5,"rot3":15,"rot4":-5,"rot5":25,"rot6":-15,"dil1":0.875,"dil2":1.025,"dil3":1.125,"dil4":0.925,"dil5":0.975,"dil6":1.075,"rots":[-25,5,15,-5,25,-15],"dils":[0.875,1.025,1.125,0.925,0.975,1.075],"loop_number":"NA","everTouched":null},{"id":"test","shape":"rustedHinge","outlier_type":2,"choice":0,"outlierPosition":5,"success":false,"majorityOfMostRegularShapes":true,"rt":8085.500000001048,"rot1":25,"rot2":5,"rot3":-15,"rot4":-5,"rot5":-25,"rot6":15,"dil1":1.125,"dil2":1.025,"dil3":0.875,"dil4":0.975,"dil5":0.925,"dil6":1.075,"rots":[25,5,-15,-5,-25,15],"dils":[1.125,1.025,0.875,0.975,0.925,1.075],"loop_number":"NA","everTouched":null},{"id":"test","shape":"rectangle","outlier_type":1,"choice":5,"outlierPosition":5,"success":true,"majorityOfMostRegularShapes":true,"rt":7594.700000001467,"rot1":-15,"rot2":15,"rot3":25,"rot4":-25,"rot5":5,"rot6":-5,"dil1":1.125,"dil2":0.925,"dil3":0.975,"dil4":1.025,"dil5":1.075,"dil6":0.875,"rots":[-15,15,25,-25,5,-5],"dils":[1.125,0.925,0.975,1.025,1.075,0.875],"loop_number":"NA","everTouched":null},{"id":"test","shape":"hinge","outlier_type":0,"choice":4,"outlierPosition":4,"success":true,"majorityOfMostRegularShapes":true,"rt":15534.199999994598,"rot1":25,"rot2":5,"rot3":-15,"rot4":-25,"rot5":-5,"rot6":15,"dil1":1.125,"dil2":0.925,"dil3":0.875,"dil4":1.075,"dil5":0.975,"dil6":1.025,"rots":[25,5,-15,-25,-5,15],"dils":[1.125,0.925,0.875,1.075,0.975,1.025],"loop_number":"NA","everTouched":null},{"id":"test","shape":"parallelogram","outlier_type":3,"choice":4,"outlierPosition":4,"success":true,"majorityOfMostRegularShapes":true,"rt":4034.299999999348,"rot1":-25,"rot2":5,"rot3":-15,"rot4":25,"rot5":15,"rot6":-5,"dil1":0.975,"dil2":0.925,"dil3":1.075,"dil4":1.125,"dil5":0.875,"dil6":1.025,"rots":[-25,5,-15,25,15,-5],"dils":[0.975,0.925,1.075,1.125,0.875,1.025],"loop_number":"NA","everTouched":null},{"id":"test","shape":"rectangle","outlier_type":0,"choice":3,"outlierPosition":3,"success":true,"majorityOfMostRegularShapes":true,"rt":5111.799999998766,"rot1":-5,"rot2":15,"rot3":-25,"rot4":25,"rot5":5,"rot6":-15,"dil1":0.975,"dil2":0.875,"dil3":1.075,"dil4":1.125,"dil5":1.025,"dil6":0.925,"rots":[-5,15,-25,25,5,-15],"dils":[0.975,0.875,1.075,1.125,1.025,0.925],"loop_number":"NA","everTouched":null},{"id":"test","shape":"random","outlier_type":3,"choice":0,"outlierPosition":3,"success":false,"majorityOfMostRegularShapes":true,"rt":19958.400000003166,"rot1":-25,"rot2":25,"rot3":5,"rot4":-15,"rot5":15,"rot6":-5,"dil1":1.025,"dil2":0.875,"dil3":0.975,"dil4":0.925,"dil5":1.075,"dil6":1.125,"rots":[-25,25,5,-15,15,-5],"dils":[1.025,0.875,0.975,0.925,1.075,1.125],"loop_number":"NA","everTouched":null},{"id":"test","shape":"rightKite","outlier_type":2,"choice":1,"outlierPosition":3,"success":false,"majorityOfMostRegularShapes":true,"rt":2612.9999999975553,"rot1":5,"rot2":25,"rot3":15,"rot4":-15,"rot5":-5,"rot6":-25,"dil1":0.925,"dil2":1.025,"dil3":0.875,"dil4":1.075,"dil5":0.975,"dil6":1.125,"rots":[5,25,15,-15,-5,-25],"dils":[0.925,1.025,0.875,1.075,0.975,1.125],"loop_number":"NA","everTouched":null},{"id":"test","shape":"random","outlier_type":0,"choice":1,"outlierPosition":1,"success":true,"majorityOfMostRegularShapes":true,"rt":28881.200000003446,"rot1":-5,"rot2":-15,"rot3":-25,"rot4":25,"rot5":5,"rot6":15,"dil1":0.975,"dil2":0.875,"dil3":1.125,"dil4":1.075,"dil5":1.025,"dil6":0.925,"rots":[-5,-15,-25,25,5,15],"dils":[0.975,0.875,1.125,1.075,1.025,0.925],"loop_number":"NA","everTouched":null},{"id":"test","shape":"square","outlier_type":1,"choice":1,"outlierPosition":1,"success":true,"majorityOfMostRegularShapes":true,"rt":2919.900000008056,"rot1":5,"rot2":-15,"rot3":25,"rot4":-25,"rot5":-5,"rot6":15,"dil1":1.075,"dil2":1.025,"dil3":0.875,"dil4":0.975,"dil5":0.925,"dil6":1.125,"rots":[5,-15,25,-25,-5,15],"dils":[1.075,1.025,0.875,0.975,0.925,1.125],"loop_number":"NA","everTouched":null},{"id":"test","shape":"trapezoid","outlier_type":2,"choice":4,"outlierPosition":0,"success":false,"majorityOfMostRegularShapes":true,"rt":6196.1000000010245,"rot1":5,"rot2":-25,"rot3":-5,"rot4":25,"rot5":15,"rot6":-15,"dil1":1.025,"dil2":1.075,"dil3":0.875,"dil4":0.925,"dil5":1.125,"dil6":0.975,"rots":[5,-25,-5,25,15,-15],"dils":[1.025,1.075,0.875,0.925,1.125,0.975],"loop_number":"NA","everTouched":null},{"id":"test","shape":"rustedHinge","outlier_type":0,"choice":1,"outlierPosition":5,"success":false,"majorityOfMostRegularShapes":true,"rt":7793.700000009267,"rot1":-5,"rot2":-15,"rot3":25,"rot4":-25,"rot5":15,"rot6":5,"dil1":1.075,"dil2":0.975,"dil3":0.925,"dil4":1.125,"dil5":0.875,"dil6":1.025,"rots":[-5,-15,25,-25,15,5],"dils":[1.075,0.975,0.925,1.125,0.875,1.025],"loop_number":"NA","everTouched":null},{"id":"test","shape":"hinge","outlier_type":3,"choice":1,"outlierPosition":5,"success":false,"majorityOfMostRegularShapes":true,"rt":18063.80000000354,"rot1":-25,"rot2":25,"rot3":15,"rot4":-15,"rot5":5,"rot6":-5,"dil1":1.075,"dil2":0.875,"dil3":0.975,"dil4":1.125,"dil5":0.925,"dil6":1.025,"rots":[-25,25,15,-15,5,-5],"dils":[1.075,0.875,0.975,1.125,0.925,1.025],"loop_number":"NA","everTouched":null},{"id":"test","shape":"square","outlier_type":2,"choice":3,"outlierPosition":3,"success":true,"majorityOfMostRegularShapes":true,"rt":8372.000000003027,"rot1":-5,"rot2":25,"rot3":-25,"rot4":15,"rot5":-15,"rot6":5,"dil1":0.875,"dil2":0.925,"dil3":1.025,"dil4":1.075,"dil5":1.125,"dil6":0.975,"rots":[-5,25,-25,15,-15,5],"dils":[0.875,0.925,1.025,1.075,1.125,0.975],"loop_number":"NA","everTouched":null},{"id":"test","shape":"trapezoid","outlier_type":0,"choice":1,"outlierPosition":2,"success":false,"majorityOfMostRegularShapes":true,"rt":8302.799999990384,"rot1":25,"rot2":5,"rot3":-15,"rot4":-25,"rot5":-5,"rot6":15,"dil1":0.975,"dil2":1.025,"dil3":1.125,"dil4":0.925,"dil5":0.875,"dil6":1.075,"rots":[25,5,-15,-25,-5,15],"dils":[0.975,1.025,1.125,0.925,0.875,1.075],"loop_number":"NA","everTouched":null},{"id":"test","shape":"hinge","outlier_type":1,"choice":0,"outlierPosition":0,"success":true,"majorityOfMostRegularShapes":true,"rt":18304.199999998673,"rot1":-25,"rot2":5,"rot3":-5,"rot4":-15,"rot5":25,"rot6":15,"dil1":0.875,"dil2":1.075,"dil3":1.025,"dil4":1.125,"dil5":0.975,"dil6":0.925,"rots":[-25,5,-5,-15,25,15],"dils":[0.875,1.075,1.025,1.125,0.975,0.925],"loop_number":"NA","everTouched":null},{"id":"test","shape":"kite","outlier_type":0,"choice":1,"outlierPosition":1,"success":true,"majorityOfMostRegularShapes":true,"rt":14035.900000002584,"rot1":-15,"rot2":5,"rot3":25,"rot4":-25,"rot5":-5,"rot6":15,"dil1":0.925,"dil2":0.875,"dil3":1.125,"dil4":1.075,"dil5":0.975,"dil6":1.025,"rots":[-15,5,25,-25,-5,15],"dils":[0.925,0.875,1.125,1.075,0.975,1.025],"loop_number":"NA","everTouched":null},{"id":"test","shape":"kite","outlier_type":3,"choice":0,"outlierPosition":5,"success":false,"majorityOfMostRegularShapes":true,"rt":7950.100000001839,"rot1":-15,"rot2":-5,"rot3":15,"rot4":-25,"rot5":25,"rot6":5,"dil1":0.925,"dil2":0.875,"dil3":0.975,"dil4":1.025,"dil5":1.075,"dil6":1.125,"rots":[-15,-5,15,-25,25,5],"dils":[0.925,0.875,0.975,1.025,1.075,1.125],"loop_number":"NA","everTouched":null},{"id":"test","shape":"hinge","outlier_type":2,"choice":4,"outlierPosition":4,"success":true,"majorityOfMostRegularShapes":true,"rt":16367.700000002515,"rot1":25,"rot2":5,"rot3":-15,"rot4":15,"rot5":-5,"rot6":-25,"dil1":1.025,"dil2":1.125,"dil3":0.875,"dil4":0.975,"dil5":0.925,"dil6":1.075,"rots":[25,5,-15,15,-5,-25],"dils":[1.025,1.125,0.875,0.975,0.925,1.075],"loop_number":"NA","everTouched":null},{"id":"test","shape":"losange","outlier_type":3,"choice":0,"outlierPosition":2,"success":false,"majorityOfMostRegularShapes":true,"rt":6012.29999998759,"rot1":-25,"rot2":5,"rot3":-5,"rot4":25,"rot5":-15,"rot6":15,"dil1":0.975,"dil2":0.875,"dil3":1.125,"dil4":0.925,"dil5":1.075,"dil6":1.025,"rots":[-25,5,-5,25,-15,15],"dils":[0.975,0.875,1.125,0.925,1.075,1.025],"loop_number":"NA","everTouched":null},{"id":"test","shape":"isoTrapezoid","outlier_type":0,"choice":4,"outlierPosition":4,"success":true,"majorityOfMostRegularShapes":true,"rt":7715.100000001257,"rot1":-15,"rot2":-5,"rot3":25,"rot4":5,"rot5":-25,"rot6":15,"dil1":1.075,"dil2":1.125,"dil3":0.975,"dil4":1.025,"dil5":0.875,"dil6":0.925,"rots":[-15,-5,25,5,-25,15],"dils":[1.075,1.125,0.975,1.025,0.875,0.925],"loop_number":"NA","everTouched":null},{"id":"test","shape":"rustedHinge","outlier_type":1,"choice":5,"outlierPosition":5,"success":true,"majorityOfMostRegularShapes":true,"rt":7103.699999992386,"rot1":5,"rot2":-25,"rot3":-15,"rot4":-5,"rot5":15,"rot6":25,"dil1":1.125,"dil2":0.975,"dil3":0.925,"dil4":1.025,"dil5":0.875,"dil6":1.075,"rots":[5,-25,-15,-5,15,25],"dils":[1.125,0.975,0.925,1.025,0.875,1.075],"loop_number":"NA","everTouched":null},{"id":"test","shape":"square","outlier_type":0,"choice":2,"outlierPosition":2,"success":true,"majorityOfMostRegularShapes":true,"rt":2882.8000000066822,"rot1":-15,"rot2":15,"rot3":5,"rot4":-5,"rot5":25,"rot6":-25,"dil1":0.925,"dil2":1.025,"dil3":1.125,"dil4":0.875,"dil5":1.075,"dil6":0.975,"rots":[-15,15,5,-5,25,-25],"dils":[0.925,1.025,1.125,0.875,1.075,0.975],"loop_number":"NA","everTouched":null},{"id":"test","shape":"rectangle","outlier_type":3,"choice":2,"outlierPosition":2,"success":true,"majorityOfMostRegularShapes":true,"rt":2149.600000004284,"rot1":-15,"rot2":15,"rot3":-5,"rot4":-25,"rot5":25,"rot6":5,"dil1":1.075,"dil2":0.925,"dil3":1.025,"dil4":0.975,"dil5":1.125,"dil6":0.875,"rots":[-15,15,-5,-25,25,5],"dils":[1.075,0.925,1.025,0.975,1.125,0.875],"loop_number":"NA","everTouched":null},{"id":"test","shape":"rightKite","outlier_type":1,"choice":4,"outlierPosition":4,"success":true,"majorityOfMostRegularShapes":true,"rt":20154.900000008638,"rot1":15,"rot2":25,"rot3":-15,"rot4":5,"rot5":-25,"rot6":-5,"dil1":1.075,"dil2":0.975,"dil3":1.125,"dil4":0.875,"dil5":1.025,"dil6":0.925,"rots":[15,25,-15,5,-25,-5],"dils":[1.075,0.975,1.125,0.875,1.025,0.925],"loop_number":"NA","everTouched":null},{"id":"test","shape":"trapezoid","outlier_type":3,"choice":2,"outlierPosition":4,"success":false,"majorityOfMostRegularShapes":true,"rt":7157.100000011269,"rot1":5,"rot2":25,"rot3":-15,"rot4":15,"rot5":-25,"rot6":-5,"dil1":0.975,"dil2":0.925,"dil3":1.025,"dil4":1.125,"dil5":1.075,"dil6":0.875,"rots":[5,25,-15,15,-25,-5],"dils":[0.975,0.925,1.025,1.125,1.075,0.875],"loop_number":"NA","everTouched":null},{"id":"test","shape":"losange","outlier_type":0,"choice":0,"outlierPosition":3,"success":false,"majorityOfMostRegularShapes":true,"rt":9415.099999998347,"rot1":-25,"rot2":5,"rot3":15,"rot4":-15,"rot5":-5,"rot6":25,"dil1":0.875,"dil2":0.975,"dil3":1.125,"dil4":1.025,"dil5":0.925,"dil6":1.075,"rots":[-25,5,15,-15,-5,25],"dils":[0.875,0.975,1.125,1.025,0.925,1.075],"loop_number":"NA","everTouched":null},{"id":"test","shape":"rightKite","outlier_type":3,"choice":0,"outlierPosition":0,"success":true,"majorityOfMostRegularShapes":true,"rt":11121.100000003935,"rot1":15,"rot2":5,"rot3":25,"rot4":-15,"rot5":-25,"rot6":-5,"dil1":1.125,"dil2":1.075,"dil3":0.875,"dil4":0.975,"dil5":0.925,"dil6":1.025,"rots":[15,5,25,-15,-25,-5],"dils":[1.125,1.075,0.875,0.975,0.925,1.025],"loop_number":"NA","everTouched":null},{"id":"test","shape":"kite","outlier_type":2,"choice":0,"outlierPosition":0,"success":true,"majorityOfMostRegularShapes":true,"rt":9176.500000001397,"rot1":-5,"rot2":25,"rot3":-15,"rot4":5,"rot5":15,"rot6":-25,"dil1":1.125,"dil2":0.975,"dil3":0.875,"dil4":1.075,"dil5":1.025,"dil6":0.925,"rots":[-5,25,-15,5,15,-25],"dils":[1.125,0.975,0.875,1.075,1.025,0.925],"loop_number":"NA","everTouched":null}],"desiredDistance":0.3,"trial_type":"oddball-grid","trial_index":3,"time_elapsed":619058,"internal_node_id":"0.0-3.0","ID":"ux80rzchkn"},{"success":true,"trial_type":"fullscreen","trial_index":4,"time_elapsed":626001,"internal_node_id":"0.0-4.0","ID":"ux80rzchkn"}]