"success","trial_type","trial_index","time_elapsed","internal_node_id","ID","rt","stimulus","button_pressed","button_pressed_text"
"true","fullscreen","0","9009","0.0-0.0","4nnsrw9lkr","","","",""
"","html-button-response","1","9947","0.0-1.0-0.0","4nnsrw9lkr","917.0999999914784","<span class=stimul>o</span>","0","Correct"
"","html-button-response","2","10409","0.0-1.0-0.1","4nnsrw9lkr","457.50000000407454","<span class=stimul>i</span>","0","Correct"
"","html-button-response","3","10926","0.0-1.0-0.2","4nnsrw9lkr","513.3999999961816","<span class=stimul>bi</span>","0","Correct"
"","html-button-response","4","11401","0.0-1.0-0.3","4nnsrw9lkr","471.19999999995343","<span class=stimul>ul</span>","0","Correct"
"","html-button-response","5","11869","0.0-1.0-0.4","4nnsrw9lkr","464.6999999968102","<span class=stimul>til</span>","0","Correct"
"","html-button-response","6","12535","0.0-1.0-0.5","4nnsrw9lkr","662.7999999909662","<span class=stimul>ja</span>","0","Correct"
"","html-button-response","7","12984","0.0-1.0-0.6","4nnsrw9lkr","445.30000000668224","<span class=stimul>ol</span>","0","Correct"
"","html-button-response","8","13590","0.0-1.0-0.7","4nnsrw9lkr","602.2999999986496","<span class=stimul>ata</span>","0","Correct"
"","html-button-response","9","14114","0.0-1.0-0.8","4nnsrw9lkr","520.7999999984168","<span class=stimul>dik</span>","0","Correct"
"","html-button-response","10","15385","0.0-1.0-0.9","4nnsrw9lkr","1267.600000006496","<span class=stimul>nar</span>","0","Correct"
"","html-button-response","11","16999","0.0-1.0-0.10","4nnsrw9lkr","1610.9999999898719","<span class=stimul>vaf</span>","0","Correct"
"","html-button-response","12","17761","0.0-1.0-0.11","4nnsrw9lkr","758.399999991525","<span class=stimul>zou</span>","0","Correct"
"","html-button-response","13","18416","0.0-1.0-0.12","4nnsrw9lkr","650.8999999932712","<span class=stimul>dul</span>","0","Correct"
"","html-button-response","14","20551","0.0-1.0-0.13","4nnsrw9lkr","2131.600000007893","<span class=stimul>lévo</span>","0","Correct"
"","html-button-response","15","21363","0.0-1.0-0.14","4nnsrw9lkr","808.4999999991851","<span class=stimul>tur</span>","0","Correct"
"","html-button-response","16","22419","0.0-1.0-0.15","4nnsrw9lkr","1052.8999999951338","<span class=stimul>veur</span>","0","Correct"
"","html-button-response","17","23092","0.0-1.0-0.16","4nnsrw9lkr","669.0999999991618","<span class=stimul>col</span>","0","Correct"
"","html-button-response","18","23892","0.0-1.0-0.17","4nnsrw9lkr","796.7999999964377","<span class=stimul>noil</span>","0","Correct"
"","html-button-response","19","26323","0.0-1.0-0.18","4nnsrw9lkr","2428.199999994831","<span class=stimul>opa</span>","0","Correct"
"","html-button-response","20","27192","0.0-1.0-0.19","4nnsrw9lkr","863.7000000016997","<span class=stimul>jal</span>","0","Correct"
"","html-button-response","21","27960","0.0-1.0-0.20","4nnsrw9lkr","765.1000000041677","<span class=stimul>neau</span>","0","Correct"
"","html-button-response","22","28609","0.0-1.0-0.21","4nnsrw9lkr","644.8999999993248","<span class=stimul>timé</span>","0","Correct"
"","html-button-response","23","30588","0.0-1.0-0.22","4nnsrw9lkr","1976.20000000461","<span class=stimul>cal</span>","0","Correct"
"","html-button-response","24","31393","0.0-1.0-0.23","4nnsrw9lkr","801.0000000067521","<span class=stimul>tibe</span>","0","Correct"
"","html-button-response","25","32443","0.0-1.0-0.24","4nnsrw9lkr","1046.3000000017928","<span class=stimul>lupe</span>","0","Correct"
"","html-button-response","26","35037","0.0-1.0-0.25","4nnsrw9lkr","2590.3999999864027","<span class=stimul>pirde</span>","0","Correct"
"","html-button-response","27","36266","0.0-1.0-0.26","4nnsrw9lkr","1225.800000000163","<span class=stimul>gor</span>","0","Correct"
"","html-button-response","28","38159","0.0-1.0-0.27","4nnsrw9lkr","1888.9999999955762","<span class=stimul>ablir</span>","0","Correct"
"","html-button-response","29","39723","0.0-1.0-0.28","4nnsrw9lkr","1560.700000001816","<span class=stimul>sar</span>","0","Correct"
"","html-button-response","30","40632","0.0-1.0-0.29","4nnsrw9lkr","905.9999999881256","<span class=stimul>vaipe</span>","0","Correct"
"","html-button-response","31","42316","0.0-1.0-0.30","4nnsrw9lkr","1680.0999999977648","<span class=stimul>cifale</span>","0","Correct"
"","html-button-response","32","44057","0.0-1.0-0.31","4nnsrw9lkr","1737.8999999928055","<span class=stimul>sapir</span>","0","Correct"
"","html-button-response","33","44910","0.0-1.0-0.32","4nnsrw9lkr","848.6000000120839","<span class=stimul>vro</span>","0","Correct"
"","html-button-response","34","46030","0.0-1.0-0.33","4nnsrw9lkr","1117.2000000078697","<span class=stimul>rigne</span>","0","Correct"
"","html-button-response","35","47954","0.0-1.0-0.34","4nnsrw9lkr","1920.299999997951","<span class=stimul>rosan</span>","0","Correct"
"","html-button-response","36","55523","0.0-1.0-0.35","4nnsrw9lkr","7564.899999997579","<span class=stimul>aubre</span>","1","Incorrect"
"","html-button-response","37","55915","0.0-1.0-0.36","4nnsrw9lkr","387.0000000024447","<span class=stimul>talpe</span>","1","Incorrect"
"","html-button-response","38","56070","0.0-1.0-0.37","4nnsrw9lkr","151.80000000691507","<span class=stimul>gur</span>","1","Incorrect"
"","html-button-response","39","56783","0.0-1.0-0.38","4nnsrw9lkr","709.6999999921536","<span class=stimul>louré</span>","1","Incorrect"
"","html-button-response","40","57618","0.0-1.0-0.39","4nnsrw9lkr","832.0000000094296","<span class=stimul>ragife</span>","1","Incorrect"
"","html-button-response","41","58462","0.0-1.0-0.40","4nnsrw9lkr","839.6000000066124","<span class=stimul>noge</span>","0","Correct"
"","html-button-response","42","59011","0.0-1.0-0.41","4nnsrw9lkr","545.6999999878462","<span class=stimul>tope</span>","0","Correct"
"","html-button-response","43","59592","0.0-1.0-0.42","4nnsrw9lkr","577.2999999899184","<span class=stimul>uché</span>","0","Correct"
"","html-button-response","44","60388","0.0-1.0-0.43","4nnsrw9lkr","792.3999999911757","<span class=stimul>truson</span>","0","Correct"
"","html-button-response","45","61051","0.0-1.0-0.44","4nnsrw9lkr","660.2999999886379","<span class=stimul>ranli</span>","0","Correct"
"","html-button-response","46","62059","0.0-1.0-0.45","4nnsrw9lkr","1004.0000000008149","<span class=stimul>tosir</span>","0","Correct"
"","html-button-response","47","64150","0.0-1.0-0.46","4nnsrw9lkr","2087.7000000036787","<span class=stimul>poitade</span>","0","Correct"
"","html-button-response","48","65500","0.0-1.0-0.47","4nnsrw9lkr","1346.5999999898486","<span class=stimul>ousir</span>","0","Correct"
"","html-button-response","49","69015","0.0-1.0-0.48","4nnsrw9lkr","","","",""
