[{"success":true,"trial_type":"fullscreen","trial_index":0,"time_elapsed":29556,"internal_node_id":"0.0-0.0","ID":"mxd5jedqok"},{"results":[{"id":"train-images","shape":"5","outlier_type":"NA","choice":2,"outlierPosition":2,"success":true,"majorityOfMostRegularShapes":"NA","rt":9702.19999999972,"rot1":25,"rot2":5,"rot3":-5,"rot4":15,"rot5":-25,"rot6":-15,"dil1":1.125,"dil2":1.025,"dil3":1.075,"dil4":0.975,"dil5":0.925,"dil6":0.875,"rots":[25,5,-5,15,-25,-15],"dils":[1.125,1.025,1.075,0.975,0.925,0.875],"loop_number":1,"everTouched":null},{"id":"train-images","shape":"8","outlier_type":"NA","choice":0,"outlierPosition":0,"success":true,"majorityOfMostRegularShapes":"NA","rt":2172.6999999955297,"rot1":15,"rot2":5,"rot3":-25,"rot4":25,"rot5":-5,"rot6":-15,"dil1":0.875,"dil2":1.125,"dil3":1.025,"dil4":0.975,"dil5":1.075,"dil6":0.925,"rots":[15,5,-25,25,-5,-15],"dils":[0.875,1.125,1.025,0.975,1.075,0.925],"loop_number":1,"everTouched":null},{"id":"train-images","shape":"7","outlier_type":"NA","choice":3,"outlierPosition":3,"success":true,"majorityOfMostRegularShapes":"NA","rt":1748.8999999914085,"rot1":-5,"rot2":15,"rot3":-15,"rot4":25,"rot5":5,"rot6":-25,"dil1":0.875,"dil2":0.925,"dil3":1.075,"dil4":1.125,"dil5":0.975,"dil6":1.025,"rots":[-5,15,-15,25,5,-25],"dils":[0.875,0.925,1.075,1.125,0.975,1.025],"loop_number":1,"everTouched":null},{"id":"train-images","shape":"10","outlier_type":"NA","choice":5,"outlierPosition":5,"success":true,"majorityOfMostRegularShapes":"NA","rt":2012.0000000024447,"rot1":25,"rot2":-15,"rot3":5,"rot4":-25,"rot5":15,"rot6":-5,"dil1":0.975,"dil2":0.925,"dil3":1.075,"dil4":1.125,"dil5":1.025,"dil6":0.875,"rots":[25,-15,5,-25,15,-5],"dils":[0.975,0.925,1.075,1.125,1.025,0.875],"loop_number":1,"everTouched":null},{"id":"train-images","shape":"4","outlier_type":"NA","choice":4,"outlierPosition":4,"success":true,"majorityOfMostRegularShapes":"NA","rt":2358.1999999878462,"rot1":-25,"rot2":-5,"rot3":15,"rot4":-15,"rot5":25,"rot6":5,"dil1":0.925,"dil2":0.975,"dil3":0.875,"dil4":1.125,"dil5":1.075,"dil6":1.025,"rots":[-25,-5,15,-15,25,5],"dils":[0.925,0.975,0.875,1.125,1.075,1.025],"loop_number":1,"everTouched":null},{"id":"train-images","shape":"1","outlier_type":"NA","choice":2,"outlierPosition":2,"success":true,"majorityOfMostRegularShapes":"NA","rt":1861.1999999993714,"rot1":15,"rot2":-15,"rot3":25,"rot4":-5,"rot5":-25,"rot6":5,"dil1":0.975,"dil2":0.925,"dil3":1.025,"dil4":0.875,"dil5":1.125,"dil6":1.075,"rots":[15,-15,25,-5,-25,5],"dils":[0.975,0.925,1.025,0.875,1.125,1.075],"loop_number":1,"everTouched":null},{"id":"train-images","shape":"3","outlier_type":"NA","choice":2,"outlierPosition":2,"success":true,"majorityOfMostRegularShapes":"NA","rt":1434.3000000080792,"rot1":-5,"rot2":-25,"rot3":-15,"rot4":25,"rot5":15,"rot6":5,"dil1":1.125,"dil2":1.025,"dil3":0.925,"dil4":1.075,"dil5":0.975,"dil6":0.875,"rots":[-5,-25,-15,25,15,5],"dils":[1.125,1.025,0.925,1.075,0.975,0.875],"loop_number":1,"everTouched":null},{"id":"train-images","shape":"2","outlier_type":"NA","choice":1,"outlierPosition":1,"success":true,"majorityOfMostRegularShapes":"NA","rt":1097.0000000088476,"rot1":-5,"rot2":15,"rot3":25,"rot4":-25,"rot5":5,"rot6":-15,"dil1":1.025,"dil2":0.975,"dil3":0.925,"dil4":1.075,"dil5":1.125,"dil6":0.875,"rots":[-5,15,25,-25,5,-15],"dils":[1.025,0.975,0.925,1.075,1.125,0.875],"loop_number":1,"everTouched":null},{"id":"train-images","shape":"9","outlier_type":"NA","choice":0,"outlierPosition":0,"success":true,"majorityOfMostRegularShapes":"NA","rt":1171.7000000062399,"rot1":-5,"rot2":5,"rot3":15,"rot4":-15,"rot5":-25,"rot6":25,"dil1":1.125,"dil2":1.075,"dil3":0.925,"dil4":0.875,"dil5":1.025,"dil6":0.975,"rots":[-5,5,15,-15,-25,25],"dils":[1.125,1.075,0.925,0.875,1.025,0.975],"loop_number":1,"everTouched":null},{"id":"train-images","shape":"6","outlier_type":"NA","choice":3,"outlierPosition":3,"success":true,"majorityOfMostRegularShapes":"NA","rt":2122.1999999979744,"rot1":5,"rot2":-5,"rot3":-15,"rot4":15,"rot5":-25,"rot6":25,"dil1":1.075,"dil2":1.025,"dil3":0.925,"dil4":0.875,"dil5":0.975,"dil6":1.125,"rots":[5,-5,-15,15,-25,25],"dils":[1.075,1.025,0.925,0.875,0.975,1.125],"loop_number":1,"everTouched":null}],"trial_type":"oddball-grid-image","trial_index":1,"time_elapsed":82358,"internal_node_id":"0.0-1.0","ID":"mxd5jedqok"},{"results":[{"id":"train","shape":null,"outlier_type":null,"choice":4,"outlierPosition":4,"success":true,"majorityOfMostRegularShapes":null,"rt":1554.4999999983702,"rot1":-15,"rot2":15,"rot3":-5,"rot4":-25,"rot5":25,"rot6":5,"dil1":1.075,"dil2":1.025,"dil3":1.125,"dil4":0.875,"dil5":0.975,"dil6":0.925,"rots":[-15,15,-5,-25,25,5],"dils":[1.075,1.025,1.125,0.875,0.975,0.925],"loop_number":1,"everTouched":null},{"id":"train","shape":null,"outlier_type":null,"choice":2,"outlierPosition":2,"success":true,"majorityOfMostRegularShapes":null,"rt":2915.8000000024913,"rot1":-25,"rot2":-15,"rot3":-5,"rot4":25,"rot5":15,"rot6":5,"dil1":1.025,"dil2":0.975,"dil3":1.125,"dil4":1.075,"dil5":0.925,"dil6":0.875,"rots":[-25,-15,-5,25,15,5],"dils":[1.025,0.975,1.125,1.075,0.925,0.875],"loop_number":1,"everTouched":null},{"id":"train","shape":null,"outlier_type":null,"choice":2,"outlierPosition":2,"success":true,"majorityOfMostRegularShapes":null,"rt":1387.3999999923399,"rot1":15,"rot2":-5,"rot3":-15,"rot4":5,"rot5":-25,"rot6":25,"dil1":0.875,"dil2":1.075,"dil3":1.125,"dil4":0.975,"dil5":1.025,"dil6":0.925,"rots":[15,-5,-15,5,-25,25],"dils":[0.875,1.075,1.125,0.975,1.025,0.925],"loop_number":1,"everTouched":null},{"id":"train","shape":null,"outlier_type":null,"choice":5,"outlierPosition":5,"success":true,"majorityOfMostRegularShapes":null,"rt":1568.7999999936437,"rot1":15,"rot2":-25,"rot3":25,"rot4":5,"rot5":-15,"rot6":-5,"dil1":0.925,"dil2":1.025,"dil3":1.125,"dil4":0.875,"dil5":1.075,"dil6":0.975,"rots":[15,-25,25,5,-15,-5],"dils":[0.925,1.025,1.125,0.875,1.075,0.975],"loop_number":1,"everTouched":null},{"id":"train","shape":null,"outlier_type":null,"choice":0,"outlierPosition":0,"success":true,"majorityOfMostRegularShapes":null,"rt":2634.3999999953667,"rot1":25,"rot2":-25,"rot3":-15,"rot4":-5,"rot5":15,"rot6":5,"dil1":1.025,"dil2":0.975,"dil3":1.125,"dil4":1.075,"dil5":0.925,"dil6":0.875,"rots":[25,-25,-15,-5,15,5],"dils":[1.025,0.975,1.125,1.075,0.925,0.875],"loop_number":1,"everTouched":null},{"id":"train","shape":null,"outlier_type":null,"choice":3,"outlierPosition":3,"success":true,"majorityOfMostRegularShapes":null,"rt":1628.2000000064727,"rot1":15,"rot2":5,"rot3":-5,"rot4":25,"rot5":-15,"rot6":-25,"dil1":0.875,"dil2":1.025,"dil3":0.925,"dil4":1.125,"dil5":0.975,"dil6":1.075,"rots":[15,5,-5,25,-15,-25],"dils":[0.875,1.025,0.925,1.125,0.975,1.075],"loop_number":1,"everTouched":null}],"desiredDistance":0.3,"trial_type":"oddball-grid-easy","trial_index":2,"time_elapsed":106387,"internal_node_id":"0.0-2.0","ID":"mxd5jedqok"},{"results":[{"id":"test","shape":"square","outlier_type":2,"choice":5,"outlierPosition":5,"success":true,"majorityOfMostRegularShapes":true,"rt":1938.8999999937369,"rot1":5,"rot2":15,"rot3":-5,"rot4":-15,"rot5":-25,"rot6":25,"dil1":0.925,"dil2":0.875,"dil3":0.975,"dil4":1.125,"dil5":1.075,"dil6":1.025,"rots":[5,15,-5,-15,-25,25],"dils":[0.925,0.875,0.975,1.125,1.075,1.025],"loop_number":"NA","everTouched":null},{"id":"test","shape":"rectangle","outlier_type":1,"choice":3,"outlierPosition":3,"success":true,"majorityOfMostRegularShapes":true,"rt":2295.0999999884516,"rot1":-15,"rot2":-5,"rot3":-25,"rot4":25,"rot5":5,"rot6":15,"dil1":1.025,"dil2":0.875,"dil3":0.925,"dil4":1.125,"dil5":0.975,"dil6":1.075,"rots":[-15,-5,-25,25,5,15],"dils":[1.025,0.875,0.925,1.125,0.975,1.075],"loop_number":"NA","everTouched":null},{"id":"test","shape":"hinge","outlier_type":2,"choice":4,"outlierPosition":4,"success":true,"majorityOfMostRegularShapes":true,"rt":4215.500000005704,"rot1":-5,"rot2":-25,"rot3":5,"rot4":-15,"rot5":25,"rot6":15,"dil1":1.125,"dil2":1.075,"dil3":0.925,"dil4":1.025,"dil5":0.875,"dil6":0.975,"rots":[-5,-25,5,-15,25,15],"dils":[1.125,1.075,0.925,1.025,0.875,0.975],"loop_number":"NA","everTouched":null},{"id":"test","shape":"rustedHinge","outlier_type":1,"choice":4,"outlierPosition":4,"success":true,"majorityOfMostRegularShapes":true,"rt":8990.299999990384,"rot1":-25,"rot2":-5,"rot3":-15,"rot4":25,"rot5":5,"rot6":15,"dil1":1.075,"dil2":0.925,"dil3":0.975,"dil4":1.025,"dil5":0.875,"dil6":1.125,"rots":[-25,-5,-15,25,5,15],"dils":[1.075,0.925,0.975,1.025,0.875,1.125],"loop_number":"NA","everTouched":null},{"id":"test","shape":"trapezoid","outlier_type":3,"choice":1,"outlierPosition":1,"success":true,"majorityOfMostRegularShapes":true,"rt":2814.700000002631,"rot1":-25,"rot2":5,"rot3":-5,"rot4":25,"rot5":15,"rot6":-15,"dil1":1.075,"dil2":0.875,"dil3":0.975,"dil4":1.025,"dil5":1.125,"dil6":0.925,"rots":[-25,5,-5,25,15,-15],"dils":[1.075,0.875,0.975,1.025,1.125,0.925],"loop_number":"NA","everTouched":null},{"id":"test","shape":"losange","outlier_type":0,"choice":0,"outlierPosition":0,"success":true,"majorityOfMostRegularShapes":true,"rt":12023.79999999539,"rot1":15,"rot2":-5,"rot3":-15,"rot4":5,"rot5":25,"rot6":-25,"dil1":0.925,"dil2":0.875,"dil3":1.125,"dil4":0.975,"dil5":1.075,"dil6":1.025,"rots":[15,-5,-15,5,25,-25],"dils":[0.925,0.875,1.125,0.975,1.075,1.025],"loop_number":"NA","everTouched":null},{"id":"test","shape":"rectangle","outlier_type":0,"choice":4,"outlierPosition":4,"success":true,"majorityOfMostRegularShapes":true,"rt":2576.199999995879,"rot1":5,"rot2":-5,"rot3":15,"rot4":-15,"rot5":25,"rot6":-25,"dil1":1.125,"dil2":0.925,"dil3":0.975,"dil4":0.875,"dil5":1.075,"dil6":1.025,"rots":[5,-5,15,-15,25,-25],"dils":[1.125,0.925,0.975,0.875,1.075,1.025],"loop_number":"NA","everTouched":null},{"id":"test","shape":"parallelogram","outlier_type":3,"choice":5,"outlierPosition":5,"success":true,"majorityOfMostRegularShapes":true,"rt":7961.699999999837,"rot1":-5,"rot2":5,"rot3":25,"rot4":15,"rot5":-25,"rot6":-15,"dil1":0.875,"dil2":1.075,"dil3":1.025,"dil4":1.125,"dil5":0.925,"dil6":0.975,"rots":[-5,5,25,15,-25,-15],"dils":[0.875,1.075,1.025,1.125,0.925,0.975],"loop_number":"NA","everTouched":null},{"id":"test","shape":"rustedHinge","outlier_type":0,"choice":4,"outlierPosition":4,"success":true,"majorityOfMostRegularShapes":true,"rt":5296.4000000065425,"rot1":-15,"rot2":-5,"rot3":5,"rot4":-25,"rot5":25,"rot6":15,"dil1":1.125,"dil2":0.925,"dil3":0.875,"dil4":1.025,"dil5":0.975,"dil6":1.075,"rots":[-15,-5,5,-25,25,15],"dils":[1.125,0.925,0.875,1.025,0.975,1.075],"loop_number":"NA","everTouched":null},{"id":"test","shape":"losange","outlier_type":1,"choice":2,"outlierPosition":0,"success":false,"majorityOfMostRegularShapes":true,"rt":3017.4000000115484,"rot1":-15,"rot2":5,"rot3":-5,"rot4":15,"rot5":25,"rot6":-25,"dil1":1.125,"dil2":0.975,"dil3":0.875,"dil4":1.025,"dil5":1.075,"dil6":0.925,"rots":[-15,5,-5,15,25,-25],"dils":[1.125,0.975,0.875,1.025,1.075,0.925],"loop_number":"NA","everTouched":null},{"id":"test","shape":"kite","outlier_type":3,"choice":0,"outlierPosition":3,"success":false,"majorityOfMostRegularShapes":true,"rt":1281.700000006822,"rot1":-5,"rot2":5,"rot3":-15,"rot4":-25,"rot5":15,"rot6":25,"dil1":1.075,"dil2":0.875,"dil3":1.025,"dil4":0.975,"dil5":0.925,"dil6":1.125,"rots":[-5,5,-15,-25,15,25],"dils":[1.075,0.875,1.025,0.975,0.925,1.125],"loop_number":"NA","everTouched":null},{"id":"test","shape":"rightKite","outlier_type":2,"choice":4,"outlierPosition":5,"success":false,"majorityOfMostRegularShapes":true,"rt":4414.999999993597,"rot1":5,"rot2":-15,"rot3":-25,"rot4":25,"rot5":-5,"rot6":15,"dil1":1.125,"dil2":1.025,"dil3":0.875,"dil4":0.925,"dil5":1.075,"dil6":0.975,"rots":[5,-15,-25,25,-5,15],"dils":[1.125,1.025,0.875,0.925,1.075,0.975],"loop_number":"NA","everTouched":null},{"id":"test","shape":"kite","outlier_type":0,"choice":2,"outlierPosition":2,"success":true,"majorityOfMostRegularShapes":true,"rt":6795.200000007753,"rot1":-5,"rot2":5,"rot3":25,"rot4":-15,"rot5":15,"rot6":-25,"dil1":1.025,"dil2":1.125,"dil3":0.975,"dil4":0.925,"dil5":0.875,"dil6":1.075,"rots":[-5,5,25,-15,15,-25],"dils":[1.025,1.125,0.975,0.925,0.875,1.075],"loop_number":"NA","everTouched":null},{"id":"test","shape":"rectangle","outlier_type":2,"choice":5,"outlierPosition":5,"success":true,"majorityOfMostRegularShapes":true,"rt":2214.69999999681,"rot1":15,"rot2":5,"rot3":25,"rot4":-15,"rot5":-5,"rot6":-25,"dil1":0.975,"dil2":1.025,"dil3":1.125,"dil4":1.075,"dil5":0.925,"dil6":0.875,"rots":[15,5,25,-15,-5,-25],"dils":[0.975,1.025,1.125,1.075,0.925,0.875],"loop_number":"NA","everTouched":null},{"id":"test","shape":"parallelogram","outlier_type":1,"choice":2,"outlierPosition":2,"success":true,"majorityOfMostRegularShapes":true,"rt":7529.600000008941,"rot1":-25,"rot2":25,"rot3":5,"rot4":-5,"rot5":-15,"rot6":15,"dil1":1.125,"dil2":0.925,"dil3":0.975,"dil4":1.025,"dil5":0.875,"dil6":1.075,"rots":[-25,25,5,-5,-15,15],"dils":[1.125,0.925,0.975,1.025,0.875,1.075],"loop_number":"NA","everTouched":null},{"id":"test","shape":"square","outlier_type":3,"choice":5,"outlierPosition":5,"success":true,"majorityOfMostRegularShapes":true,"rt":1888.8999999908265,"rot1":-25,"rot2":15,"rot3":25,"rot4":-5,"rot5":-15,"rot6":5,"dil1":0.925,"dil2":0.875,"dil3":1.075,"dil4":1.125,"dil5":1.025,"dil6":0.975,"rots":[-25,15,25,-5,-15,5],"dils":[0.925,0.875,1.075,1.125,1.025,0.975],"loop_number":"NA","everTouched":null},{"id":"test","shape":"rightKite","outlier_type":1,"choice":2,"outlierPosition":5,"success":false,"majorityOfMostRegularShapes":true,"rt":3049.799999993411,"rot1":-15,"rot2":5,"rot3":25,"rot4":-25,"rot5":15,"rot6":-5,"dil1":0.925,"dil2":0.875,"dil3":1.025,"dil4":0.975,"dil5":1.125,"dil6":1.075,"rots":[-15,5,25,-25,15,-5],"dils":[0.925,0.875,1.025,0.975,1.125,1.075],"loop_number":"NA","everTouched":null},{"id":"test","shape":"square","outlier_type":0,"choice":2,"outlierPosition":2,"success":true,"majorityOfMostRegularShapes":true,"rt":2448.3999999938533,"rot1":-15,"rot2":25,"rot3":-25,"rot4":15,"rot5":-5,"rot6":5,"dil1":1.075,"dil2":1.025,"dil3":0.925,"dil4":0.975,"dil5":0.875,"dil6":1.125,"rots":[-15,25,-25,15,-5,5],"dils":[1.075,1.025,0.925,0.975,0.875,1.125],"loop_number":"NA","everTouched":null},{"id":"test","shape":"random","outlier_type":3,"choice":2,"outlierPosition":0,"success":false,"majorityOfMostRegularShapes":true,"rt":2854.699999996228,"rot1":5,"rot2":-15,"rot3":-25,"rot4":-5,"rot5":15,"rot6":25,"dil1":0.975,"dil2":1.075,"dil3":0.875,"dil4":0.925,"dil5":1.125,"dil6":1.025,"rots":[5,-15,-25,-5,15,25],"dils":[0.975,1.075,0.875,0.925,1.125,1.025],"loop_number":"NA","everTouched":null},{"id":"test","shape":"isoTrapezoid","outlier_type":1,"choice":1,"outlierPosition":1,"success":true,"majorityOfMostRegularShapes":true,"rt":5242.899999997462,"rot1":15,"rot2":-25,"rot3":-15,"rot4":5,"rot5":25,"rot6":-5,"dil1":1.025,"dil2":1.125,"dil3":0.925,"dil4":0.875,"dil5":1.075,"dil6":0.975,"rots":[15,-25,-15,5,25,-5],"dils":[1.025,1.125,0.925,0.875,1.075,0.975],"loop_number":"NA","everTouched":null},{"id":"test","shape":"random","outlier_type":0,"choice":3,"outlierPosition":3,"success":true,"majorityOfMostRegularShapes":true,"rt":4062.100000010105,"rot1":-25,"rot2":-5,"rot3":-15,"rot4":25,"rot5":5,"rot6":15,"dil1":1.075,"dil2":0.975,"dil3":0.925,"dil4":0.875,"dil5":1.125,"dil6":1.025,"rots":[-25,-5,-15,25,5,15],"dils":[1.075,0.975,0.925,0.875,1.125,1.025],"loop_number":"NA","everTouched":null},{"id":"test","shape":"kite","outlier_type":1,"choice":4,"outlierPosition":3,"success":false,"majorityOfMostRegularShapes":true,"rt":2291.400000001886,"rot1":-25,"rot2":5,"rot3":25,"rot4":-5,"rot5":-15,"rot6":15,"dil1":1.075,"dil2":1.025,"dil3":0.925,"dil4":1.125,"dil5":0.875,"dil6":0.975,"rots":[-25,5,25,-5,-15,15],"dils":[1.075,1.025,0.925,1.125,0.875,0.975],"loop_number":"NA","everTouched":null},{"id":"test","shape":"isoTrapezoid","outlier_type":0,"choice":3,"outlierPosition":4,"success":false,"majorityOfMostRegularShapes":true,"rt":5089.200000002165,"rot1":25,"rot2":5,"rot3":15,"rot4":-25,"rot5":-15,"rot6":-5,"dil1":1.025,"dil2":0.875,"dil3":0.975,"dil4":1.125,"dil5":1.075,"dil6":0.925,"rots":[25,5,15,-25,-15,-5],"dils":[1.025,0.875,0.975,1.125,1.075,0.925],"loop_number":"NA","everTouched":null},{"id":"test","shape":"rustedHinge","outlier_type":3,"choice":1,"outlierPosition":1,"success":true,"majorityOfMostRegularShapes":true,"rt":6986.600000003818,"rot1":5,"rot2":-25,"rot3":25,"rot4":-15,"rot5":-5,"rot6":15,"dil1":1.025,"dil2":1.125,"dil3":1.075,"dil4":0.925,"dil5":0.975,"dil6":0.875,"rots":[5,-25,25,-15,-5,15],"dils":[1.025,1.125,1.075,0.925,0.975,0.875],"loop_number":"NA","everTouched":null},{"id":"test","shape":"random","outlier_type":1,"choice":0,"outlierPosition":0,"success":true,"majorityOfMostRegularShapes":true,"rt":3246.49999999383,"rot1":-15,"rot2":15,"rot3":-25,"rot4":5,"rot5":25,"rot6":-5,"dil1":0.925,"dil2":0.975,"dil3":1.075,"dil4":1.125,"dil5":0.875,"dil6":1.025,"rots":[-15,15,-25,5,25,-5],"dils":[0.925,0.975,1.075,1.125,0.875,1.025],"loop_number":"NA","everTouched":null},{"id":"test","shape":"trapezoid","outlier_type":2,"choice":0,"outlierPosition":0,"success":true,"majorityOfMostRegularShapes":true,"rt":2770.0000000040745,"rot1":-25,"rot2":-5,"rot3":25,"rot4":-15,"rot5":5,"rot6":15,"dil1":0.875,"dil2":0.975,"dil3":1.125,"dil4":1.025,"dil5":1.075,"dil6":0.925,"rots":[-25,-5,25,-15,5,15],"dils":[0.875,0.975,1.125,1.025,1.075,0.925],"loop_number":"NA","everTouched":null},{"id":"test","shape":"hinge","outlier_type":0,"choice":1,"outlierPosition":0,"success":false,"majorityOfMostRegularShapes":true,"rt":6818.199999994249,"rot1":-5,"rot2":5,"rot3":25,"rot4":15,"rot5":-25,"rot6":-15,"dil1":0.875,"dil2":0.925,"dil3":1.125,"dil4":0.975,"dil5":1.025,"dil6":1.075,"rots":[-5,5,25,15,-25,-15],"dils":[0.875,0.925,1.125,0.975,1.025,1.075],"loop_number":"NA","everTouched":null},{"id":"test","shape":"losange","outlier_type":2,"choice":4,"outlierPosition":4,"success":true,"majorityOfMostRegularShapes":true,"rt":3191.500000000815,"rot1":15,"rot2":5,"rot3":25,"rot4":-15,"rot5":-5,"rot6":-25,"dil1":0.925,"dil2":0.975,"dil3":1.075,"dil4":0.875,"dil5":1.125,"dil6":1.025,"rots":[15,5,25,-15,-5,-25],"dils":[0.925,0.975,1.075,0.875,1.125,1.025],"loop_number":"NA","everTouched":null},{"id":"test","shape":"rectangle","outlier_type":3,"choice":4,"outlierPosition":4,"success":true,"majorityOfMostRegularShapes":true,"rt":2360.499999995227,"rot1":25,"rot2":5,"rot3":15,"rot4":-25,"rot5":-5,"rot6":-15,"dil1":0.875,"dil2":1.025,"dil3":0.975,"dil4":1.125,"dil5":1.075,"dil6":0.925,"rots":[25,5,15,-25,-5,-15],"dils":[0.875,1.025,0.975,1.125,1.075,0.925],"loop_number":"NA","everTouched":null},{"id":"test","shape":"random","outlier_type":2,"choice":5,"outlierPosition":0,"success":false,"majorityOfMostRegularShapes":true,"rt":12656.400000007125,"rot1":15,"rot2":-5,"rot3":-15,"rot4":5,"rot5":25,"rot6":-25,"dil1":1.075,"dil2":0.925,"dil3":1.125,"dil4":1.025,"dil5":0.875,"dil6":0.975,"rots":[15,-5,-15,5,25,-25],"dils":[1.075,0.925,1.125,1.025,0.875,0.975],"loop_number":"NA","everTouched":null},{"id":"test","shape":"rightKite","outlier_type":0,"choice":5,"outlierPosition":2,"success":false,"majorityOfMostRegularShapes":true,"rt":5533.400000000256,"rot1":-25,"rot2":-15,"rot3":15,"rot4":25,"rot5":5,"rot6":-5,"dil1":1.025,"dil2":0.975,"dil3":1.075,"dil4":1.125,"dil5":0.925,"dil6":0.875,"rots":[-25,-15,15,25,5,-5],"dils":[1.025,0.975,1.075,1.125,0.925,0.875],"loop_number":"NA","everTouched":null},{"id":"test","shape":"hinge","outlier_type":1,"choice":2,"outlierPosition":0,"success":false,"majorityOfMostRegularShapes":true,"rt":6627.000000007683,"rot1":5,"rot2":25,"rot3":-5,"rot4":-25,"rot5":-15,"rot6":15,"dil1":1.125,"dil2":0.925,"dil3":0.975,"dil4":1.025,"dil5":1.075,"dil6":0.875,"rots":[5,25,-5,-25,-15,15],"dils":[1.125,0.925,0.975,1.025,1.075,0.875],"loop_number":"NA","everTouched":null},{"id":"test","shape":"rustedHinge","outlier_type":2,"choice":0,"outlierPosition":5,"success":false,"majorityOfMostRegularShapes":true,"rt":6256.8000000028405,"rot1":15,"rot2":-15,"rot3":5,"rot4":25,"rot5":-25,"rot6":-5,"dil1":0.875,"dil2":1.075,"dil3":0.975,"dil4":1.125,"dil5":0.925,"dil6":1.025,"rots":[15,-15,5,25,-25,-5],"dils":[0.875,1.075,0.975,1.125,0.925,1.025],"loop_number":"NA","everTouched":null},{"id":"test","shape":"losange","outlier_type":3,"choice":3,"outlierPosition":2,"success":false,"majorityOfMostRegularShapes":true,"rt":1891.0000000032596,"rot1":-25,"rot2":15,"rot3":-5,"rot4":25,"rot5":-15,"rot6":5,"dil1":1.125,"dil2":0.975,"dil3":1.075,"dil4":1.025,"dil5":0.925,"dil6":0.875,"rots":[-25,15,-5,25,-15,5],"dils":[1.125,0.975,1.075,1.025,0.925,0.875],"loop_number":"NA","everTouched":null},{"id":"test","shape":"square","outlier_type":1,"choice":5,"outlierPosition":5,"success":true,"majorityOfMostRegularShapes":true,"rt":5096.400000009453,"rot1":25,"rot2":-25,"rot3":5,"rot4":-15,"rot5":15,"rot6":-5,"dil1":1.025,"dil2":1.125,"dil3":0.925,"dil4":1.075,"dil5":0.875,"dil6":0.975,"rots":[25,-25,5,-15,15,-5],"dils":[1.025,1.125,0.925,1.075,0.875,0.975],"loop_number":"NA","everTouched":null},{"id":"test","shape":"trapezoid","outlier_type":0,"choice":3,"outlierPosition":3,"success":true,"majorityOfMostRegularShapes":true,"rt":4441.800000000512,"rot1":25,"rot2":-5,"rot3":15,"rot4":-15,"rot5":5,"rot6":-25,"dil1":0.925,"dil2":0.975,"dil3":1.025,"dil4":1.075,"dil5":1.125,"dil6":0.875,"rots":[25,-5,15,-15,5,-25],"dils":[0.925,0.975,1.025,1.075,1.125,0.875],"loop_number":"NA","everTouched":null},{"id":"test","shape":"parallelogram","outlier_type":2,"choice":0,"outlierPosition":0,"success":true,"majorityOfMostRegularShapes":true,"rt":5386.999999987893,"rot1":25,"rot2":-25,"rot3":-5,"rot4":15,"rot5":-15,"rot6":5,"dil1":1.025,"dil2":1.075,"dil3":1.125,"dil4":0.925,"dil5":0.875,"dil6":0.975,"rots":[25,-25,-5,15,-15,5],"dils":[1.025,1.075,1.125,0.925,0.875,0.975],"loop_number":"NA","everTouched":null},{"id":"test","shape":"hinge","outlier_type":3,"choice":2,"outlierPosition":0,"success":false,"majorityOfMostRegularShapes":true,"rt":3541.2000000069384,"rot1":25,"rot2":15,"rot3":5,"rot4":-15,"rot5":-5,"rot6":-25,"dil1":1.025,"dil2":0.925,"dil3":1.075,"dil4":1.125,"dil5":0.975,"dil6":0.875,"rots":[25,15,5,-15,-5,-25],"dils":[1.025,0.925,1.075,1.125,0.975,0.875],"loop_number":"NA","everTouched":null},{"id":"test","shape":"parallelogram","outlier_type":0,"choice":4,"outlierPosition":4,"success":true,"majorityOfMostRegularShapes":true,"rt":12038.899999999558,"rot1":-15,"rot2":15,"rot3":-5,"rot4":5,"rot5":-25,"rot6":25,"dil1":1.025,"dil2":0.975,"dil3":1.125,"dil4":0.875,"dil5":0.925,"dil6":1.075,"rots":[-15,15,-5,5,-25,25],"dils":[1.025,0.975,1.125,0.875,0.925,1.075],"loop_number":"NA","everTouched":null},{"id":"test","shape":"isoTrapezoid","outlier_type":3,"choice":5,"outlierPosition":4,"success":false,"majorityOfMostRegularShapes":true,"rt":12025.199999989127,"rot1":5,"rot2":-15,"rot3":25,"rot4":-5,"rot5":15,"rot6":-25,"dil1":0.925,"dil2":1.125,"dil3":0.975,"dil4":1.075,"dil5":1.025,"dil6":0.875,"rots":[5,-15,25,-5,15,-25],"dils":[0.925,1.125,0.975,1.075,1.025,0.875],"loop_number":"NA","everTouched":null},{"id":"test","shape":"trapezoid","outlier_type":1,"choice":0,"outlierPosition":0,"success":true,"majorityOfMostRegularShapes":true,"rt":4505.600000004051,"rot1":-5,"rot2":-15,"rot3":-25,"rot4":15,"rot5":5,"rot6":25,"dil1":1.075,"dil2":1.025,"dil3":0.925,"dil4":0.875,"dil5":1.125,"dil6":0.975,"rots":[-5,-15,-25,15,5,25],"dils":[1.075,1.025,0.925,0.875,1.125,0.975],"loop_number":"NA","everTouched":null},{"id":"test","shape":"rightKite","outlier_type":3,"choice":4,"outlierPosition":3,"success":false,"majorityOfMostRegularShapes":true,"rt":5288.899999999558,"rot1":-5,"rot2":5,"rot3":-15,"rot4":15,"rot5":-25,"rot6":25,"dil1":1.075,"dil2":0.975,"dil3":1.025,"dil4":0.875,"dil5":0.925,"dil6":1.125,"rots":[-5,5,-15,15,-25,25],"dils":[1.075,0.975,1.025,0.875,0.925,1.125],"loop_number":"NA","everTouched":null},{"id":"test","shape":"isoTrapezoid","outlier_type":2,"choice":0,"outlierPosition":0,"success":true,"majorityOfMostRegularShapes":true,"rt":6176.399999996647,"rot1":-5,"rot2":5,"rot3":-15,"rot4":25,"rot5":15,"rot6":-25,"dil1":0.875,"dil2":1.075,"dil3":1.025,"dil4":1.125,"dil5":0.925,"dil6":0.975,"rots":[-5,5,-15,25,15,-25],"dils":[0.875,1.075,1.025,1.125,0.925,0.975],"loop_number":"NA","everTouched":null},{"id":"test","shape":"kite","outlier_type":2,"choice":1,"outlierPosition":1,"success":true,"majorityOfMostRegularShapes":true,"rt":1630.299999989802,"rot1":5,"rot2":-5,"rot3":15,"rot4":-15,"rot5":25,"rot6":-25,"dil1":1.025,"dil2":0.875,"dil3":1.075,"dil4":0.925,"dil5":1.125,"dil6":0.975,"rots":[5,-5,15,-15,25,-25],"dils":[1.025,0.875,1.075,0.925,1.125,0.975],"loop_number":"NA","everTouched":null}],"desiredDistance":0.3,"trial_type":"oddball-grid","trial_index":3,"time_elapsed":412375,"internal_node_id":"0.0-3.0","ID":"mxd5jedqok"},{"success":true,"trial_type":"fullscreen","trial_index":4,"time_elapsed":426960,"internal_node_id":"0.0-4.0","ID":"mxd5jedqok"}]