[{"success":true,"trial_type":"fullscreen","trial_index":0,"time_elapsed":24258,"internal_node_id":"0.0-0.0","ID":"z8zowa70hc"},{"results":[{"id":"train-images","shape":"10","outlier_type":"NA","choice":0,"outlierPosition":0,"success":true,"majorityOfMostRegularShapes":"NA","rt":21706.90000001923,"rot1":15,"rot2":-25,"rot3":-15,"rot4":-5,"rot5":25,"rot6":5,"dil1":0.925,"dil2":1.125,"dil3":0.975,"dil4":1.025,"dil5":1.075,"dil6":0.875,"rots":[15,-25,-15,-5,25,5],"dils":[0.925,1.125,0.975,1.025,1.075,0.875],"loop_number":1,"everTouched":null},{"id":"train-images","shape":"5","outlier_type":"NA","choice":5,"outlierPosition":5,"success":true,"majorityOfMostRegularShapes":"NA","rt":2538.200000009965,"rot1":-25,"rot2":-5,"rot3":-15,"rot4":15,"rot5":5,"rot6":25,"dil1":0.925,"dil2":1.125,"dil3":0.875,"dil4":1.025,"dil5":0.975,"dil6":1.075,"rots":[-25,-5,-15,15,5,25],"dils":[0.925,1.125,0.875,1.025,0.975,1.075],"loop_number":1,"everTouched":null},{"id":"train-images","shape":"1","outlier_type":"NA","choice":1,"outlierPosition":1,"success":true,"majorityOfMostRegularShapes":"NA","rt":2273.5999999858905,"rot1":-5,"rot2":-25,"rot3":-15,"rot4":25,"rot5":15,"rot6":5,"dil1":1.025,"dil2":0.975,"dil3":0.925,"dil4":1.075,"dil5":1.125,"dil6":0.875,"rots":[-5,-25,-15,25,15,5],"dils":[1.025,0.975,0.925,1.075,1.125,0.875],"loop_number":1,"everTouched":null},{"id":"train-images","shape":"2","outlier_type":"NA","choice":1,"outlierPosition":1,"success":true,"majorityOfMostRegularShapes":"NA","rt":2093.5999999928754,"rot1":-15,"rot2":25,"rot3":-25,"rot4":-5,"rot5":5,"rot6":15,"dil1":0.925,"dil2":1.125,"dil3":0.875,"dil4":0.975,"dil5":1.025,"dil6":1.075,"rots":[-15,25,-25,-5,5,15],"dils":[0.925,1.125,0.875,0.975,1.025,1.075],"loop_number":1,"everTouched":null},{"id":"train-images","shape":"6","outlier_type":"NA","choice":3,"outlierPosition":3,"success":true,"majorityOfMostRegularShapes":"NA","rt":2573.2999999891035,"rot1":-5,"rot2":-15,"rot3":-25,"rot4":25,"rot5":5,"rot6":15,"dil1":1.125,"dil2":1.025,"dil3":0.875,"dil4":0.925,"dil5":0.975,"dil6":1.075,"rots":[-5,-15,-25,25,5,15],"dils":[1.125,1.025,0.875,0.925,0.975,1.075],"loop_number":1,"everTouched":null},{"id":"train-images","shape":"3","outlier_type":"NA","choice":2,"outlierPosition":2,"success":true,"majorityOfMostRegularShapes":"NA","rt":1344.699999986915,"rot1":-25,"rot2":-15,"rot3":25,"rot4":15,"rot5":-5,"rot6":5,"dil1":1.075,"dil2":0.975,"dil3":1.025,"dil4":0.875,"dil5":0.925,"dil6":1.125,"rots":[-25,-15,25,15,-5,5],"dils":[1.075,0.975,1.025,0.875,0.925,1.125],"loop_number":1,"everTouched":null},{"id":"train-images","shape":"4","outlier_type":"NA","choice":1,"outlierPosition":1,"success":true,"majorityOfMostRegularShapes":"NA","rt":1182.9000000143424,"rot1":-25,"rot2":25,"rot3":5,"rot4":15,"rot5":-5,"rot6":-15,"dil1":0.875,"dil2":0.925,"dil3":1.025,"dil4":0.975,"dil5":1.075,"dil6":1.125,"rots":[-25,25,5,15,-5,-15],"dils":[0.875,0.925,1.025,0.975,1.075,1.125],"loop_number":1,"everTouched":null},{"id":"train-images","shape":"8","outlier_type":"NA","choice":1,"outlierPosition":1,"success":true,"majorityOfMostRegularShapes":"NA","rt":1548.399999999674,"rot1":-5,"rot2":-25,"rot3":-15,"rot4":5,"rot5":25,"rot6":15,"dil1":1.125,"dil2":1.075,"dil3":0.925,"dil4":1.025,"dil5":0.975,"dil6":0.875,"rots":[-5,-25,-15,5,25,15],"dils":[1.125,1.075,0.925,1.025,0.975,0.875],"loop_number":1,"everTouched":null},{"id":"train-images","shape":"7","outlier_type":"NA","choice":0,"outlierPosition":0,"success":true,"majorityOfMostRegularShapes":"NA","rt":1098.3000000123866,"rot1":-5,"rot2":15,"rot3":-25,"rot4":5,"rot5":-15,"rot6":25,"dil1":0.975,"dil2":1.025,"dil3":0.925,"dil4":1.075,"dil5":1.125,"dil6":0.875,"rots":[-5,15,-25,5,-15,25],"dils":[0.975,1.025,0.925,1.075,1.125,0.875],"loop_number":1,"everTouched":null},{"id":"train-images","shape":"9","outlier_type":"NA","choice":5,"outlierPosition":5,"success":true,"majorityOfMostRegularShapes":"NA","rt":2078.200000018114,"rot1":-5,"rot2":15,"rot3":25,"rot4":-15,"rot5":5,"rot6":-25,"dil1":1.125,"dil2":1.075,"dil3":1.025,"dil4":0.875,"dil5":0.975,"dil6":0.925,"rots":[-5,15,25,-15,5,-25],"dils":[1.125,1.075,1.025,0.875,0.975,0.925],"loop_number":1,"everTouched":null}],"trial_type":"oddball-grid-image","trial_index":1,"time_elapsed":93792,"internal_node_id":"0.0-1.0","ID":"z8zowa70hc"},{"results":[{"id":"train","shape":null,"outlier_type":null,"choice":3,"outlierPosition":3,"success":true,"majorityOfMostRegularShapes":null,"rt":3190.100000007078,"rot1":-25,"rot2":-5,"rot3":5,"rot4":15,"rot5":-15,"rot6":25,"dil1":1.125,"dil2":1.075,"dil3":0.975,"dil4":0.925,"dil5":1.025,"dil6":0.875,"rots":[-25,-5,5,15,-15,25],"dils":[1.125,1.075,0.975,0.925,1.025,0.875],"loop_number":1,"everTouched":null},{"id":"train","shape":null,"outlier_type":null,"choice":5,"outlierPosition":5,"success":true,"majorityOfMostRegularShapes":null,"rt":2388.600000005681,"rot1":-15,"rot2":-5,"rot3":5,"rot4":15,"rot5":-25,"rot6":25,"dil1":1.075,"dil2":1.025,"dil3":0.975,"dil4":0.925,"dil5":0.875,"dil6":1.125,"rots":[-15,-5,5,15,-25,25],"dils":[1.075,1.025,0.975,0.925,0.875,1.125],"loop_number":1,"everTouched":null},{"id":"train","shape":null,"outlier_type":null,"choice":0,"outlierPosition":0,"success":true,"majorityOfMostRegularShapes":null,"rt":1281.7999999970198,"rot1":5,"rot2":-5,"rot3":25,"rot4":-25,"rot5":-15,"rot6":15,"dil1":1.025,"dil2":0.875,"dil3":1.075,"dil4":0.925,"dil5":1.125,"dil6":0.975,"rots":[5,-5,25,-25,-15,15],"dils":[1.025,0.875,1.075,0.925,1.125,0.975],"loop_number":1,"everTouched":null},{"id":"train","shape":null,"outlier_type":null,"choice":1,"outlierPosition":1,"success":true,"majorityOfMostRegularShapes":null,"rt":2018.500000005588,"rot1":-5,"rot2":-25,"rot3":15,"rot4":25,"rot5":5,"rot6":-15,"dil1":0.925,"dil2":0.975,"dil3":0.875,"dil4":1.025,"dil5":1.075,"dil6":1.125,"rots":[-5,-25,15,25,5,-15],"dils":[0.925,0.975,0.875,1.025,1.075,1.125],"loop_number":1,"everTouched":null},{"id":"train","shape":null,"outlier_type":null,"choice":5,"outlierPosition":5,"success":true,"majorityOfMostRegularShapes":null,"rt":1478.3000000170432,"rot1":25,"rot2":-5,"rot3":5,"rot4":-15,"rot5":15,"rot6":-25,"dil1":1.025,"dil2":1.125,"dil3":1.075,"dil4":0.875,"dil5":0.925,"dil6":0.975,"rots":[25,-5,5,-15,15,-25],"dils":[1.025,1.125,1.075,0.875,0.925,0.975],"loop_number":1,"everTouched":null},{"id":"train","shape":null,"outlier_type":null,"choice":0,"outlierPosition":0,"success":true,"majorityOfMostRegularShapes":null,"rt":1367.499999993015,"rot1":25,"rot2":5,"rot3":-5,"rot4":-25,"rot5":-15,"rot6":15,"dil1":0.975,"dil2":0.875,"dil3":1.075,"dil4":1.025,"dil5":1.125,"dil6":0.925,"rots":[25,5,-5,-25,-15,15],"dils":[0.975,0.875,1.075,1.025,1.125,0.925],"loop_number":1,"everTouched":null}],"desiredDistance":0.3,"trial_type":"oddball-grid-easy","trial_index":2,"time_elapsed":117272,"internal_node_id":"0.0-2.0","ID":"z8zowa70hc"},{"results":[{"id":"test","shape":"rustedHinge","outlier_type":0,"choice":5,"outlierPosition":3,"success":false,"majorityOfMostRegularShapes":true,"rt":9836.700000014389,"rot1":-15,"rot2":-25,"rot3":25,"rot4":-5,"rot5":5,"rot6":15,"dil1":0.975,"dil2":0.875,"dil3":1.075,"dil4":1.125,"dil5":1.025,"dil6":0.925,"rots":[-15,-25,25,-5,5,15],"dils":[0.975,0.875,1.075,1.125,1.025,0.925],"loop_number":"NA","everTouched":null},{"id":"test","shape":"hinge","outlier_type":2,"choice":2,"outlierPosition":2,"success":true,"majorityOfMostRegularShapes":true,"rt":3972.8000000177417,"rot1":15,"rot2":-15,"rot3":25,"rot4":-5,"rot5":5,"rot6":-25,"dil1":1.125,"dil2":0.925,"dil3":1.075,"dil4":0.975,"dil5":0.875,"dil6":1.025,"rots":[15,-15,25,-5,5,-25],"dils":[1.125,0.925,1.075,0.975,0.875,1.025],"loop_number":"NA","everTouched":null},{"id":"test","shape":"random","outlier_type":0,"choice":2,"outlierPosition":0,"success":false,"majorityOfMostRegularShapes":true,"rt":5857.300000003306,"rot1":25,"rot2":-5,"rot3":5,"rot4":-25,"rot5":15,"rot6":-15,"dil1":0.975,"dil2":0.875,"dil3":1.075,"dil4":1.025,"dil5":1.125,"dil6":0.925,"rots":[25,-5,5,-25,15,-15],"dils":[0.975,0.875,1.075,1.025,1.125,0.925],"loop_number":"NA","everTouched":null},{"id":"test","shape":"parallelogram","outlier_type":3,"choice":0,"outlierPosition":2,"success":false,"majorityOfMostRegularShapes":true,"rt":4905.899999983376,"rot1":-15,"rot2":25,"rot3":5,"rot4":15,"rot5":-5,"rot6":-25,"dil1":1.125,"dil2":0.875,"dil3":0.925,"dil4":1.025,"dil5":1.075,"dil6":0.975,"rots":[-15,25,5,15,-5,-25],"dils":[1.125,0.875,0.925,1.025,1.075,0.975],"loop_number":"NA","everTouched":null},{"id":"test","shape":"random","outlier_type":1,"choice":3,"outlierPosition":3,"success":true,"majorityOfMostRegularShapes":true,"rt":4710.3000000061,"rot1":-25,"rot2":15,"rot3":25,"rot4":-5,"rot5":5,"rot6":-15,"dil1":1.125,"dil2":1.025,"dil3":1.075,"dil4":0.875,"dil5":0.975,"dil6":0.925,"rots":[-25,15,25,-5,5,-15],"dils":[1.125,1.025,1.075,0.875,0.975,0.925],"loop_number":"NA","everTouched":null},{"id":"test","shape":"losange","outlier_type":0,"choice":1,"outlierPosition":4,"success":false,"majorityOfMostRegularShapes":true,"rt":4560.200000007171,"rot1":-5,"rot2":25,"rot3":-15,"rot4":15,"rot5":5,"rot6":-25,"dil1":0.925,"dil2":1.125,"dil3":0.875,"dil4":0.975,"dil5":1.075,"dil6":1.025,"rots":[-5,25,-15,15,5,-25],"dils":[0.925,1.125,0.875,0.975,1.075,1.025],"loop_number":"NA","everTouched":null},{"id":"test","shape":"rectangle","outlier_type":2,"choice":1,"outlierPosition":1,"success":true,"majorityOfMostRegularShapes":true,"rt":3100.399999995716,"rot1":-5,"rot2":-15,"rot3":-25,"rot4":25,"rot5":15,"rot6":5,"dil1":1.025,"dil2":0.975,"dil3":1.075,"dil4":1.125,"dil5":0.875,"dil6":0.925,"rots":[-5,-15,-25,25,15,5],"dils":[1.025,0.975,1.075,1.125,0.875,0.925],"loop_number":"NA","everTouched":null},{"id":"test","shape":"rightKite","outlier_type":1,"choice":1,"outlierPosition":1,"success":true,"majorityOfMostRegularShapes":true,"rt":4816.500000015367,"rot1":15,"rot2":5,"rot3":25,"rot4":-5,"rot5":-15,"rot6":-25,"dil1":1.075,"dil2":1.025,"dil3":0.875,"dil4":1.125,"dil5":0.925,"dil6":0.975,"rots":[15,5,25,-5,-15,-25],"dils":[1.075,1.025,0.875,1.125,0.925,0.975],"loop_number":"NA","everTouched":null},{"id":"test","shape":"parallelogram","outlier_type":0,"choice":4,"outlierPosition":4,"success":true,"majorityOfMostRegularShapes":true,"rt":4899.700000009034,"rot1":15,"rot2":25,"rot3":-15,"rot4":-25,"rot5":-5,"rot6":5,"dil1":0.975,"dil2":1.075,"dil3":1.125,"dil4":0.875,"dil5":1.025,"dil6":0.925,"rots":[15,25,-15,-25,-5,5],"dils":[0.975,1.075,1.125,0.875,1.025,0.925],"loop_number":"NA","everTouched":null},{"id":"test","shape":"square","outlier_type":2,"choice":4,"outlierPosition":4,"success":true,"majorityOfMostRegularShapes":true,"rt":3247.9999999923166,"rot1":-15,"rot2":-5,"rot3":5,"rot4":15,"rot5":25,"rot6":-25,"dil1":1.075,"dil2":1.125,"dil3":1.025,"dil4":0.975,"dil5":0.925,"dil6":0.875,"rots":[-15,-5,5,15,25,-25],"dils":[1.075,1.125,1.025,0.975,0.925,0.875],"loop_number":"NA","everTouched":null},{"id":"test","shape":"kite","outlier_type":0,"choice":2,"outlierPosition":3,"success":false,"majorityOfMostRegularShapes":true,"rt":3045.1999999932013,"rot1":-5,"rot2":15,"rot3":-25,"rot4":-15,"rot5":5,"rot6":25,"dil1":1.025,"dil2":0.925,"dil3":1.075,"dil4":1.125,"dil5":0.975,"dil6":0.875,"rots":[-5,15,-25,-15,5,25],"dils":[1.025,0.925,1.075,1.125,0.975,0.875],"loop_number":"NA","everTouched":null},{"id":"test","shape":"rustedHinge","outlier_type":2,"choice":5,"outlierPosition":4,"success":false,"majorityOfMostRegularShapes":true,"rt":7586.200000019744,"rot1":25,"rot2":-15,"rot3":-25,"rot4":5,"rot5":15,"rot6":-5,"dil1":1.075,"dil2":0.975,"dil3":1.125,"dil4":1.025,"dil5":0.875,"dil6":0.925,"rots":[25,-15,-25,5,15,-5],"dils":[1.075,0.975,1.125,1.025,0.875,0.925],"loop_number":"NA","everTouched":null},{"id":"test","shape":"rectangle","outlier_type":1,"choice":4,"outlierPosition":4,"success":true,"majorityOfMostRegularShapes":true,"rt":2265.2999999991152,"rot1":-15,"rot2":-5,"rot3":-25,"rot4":25,"rot5":5,"rot6":15,"dil1":1.125,"dil2":1.075,"dil3":1.025,"dil4":0.975,"dil5":0.925,"dil6":0.875,"rots":[-15,-5,-25,25,5,15],"dils":[1.125,1.075,1.025,0.975,0.925,0.875],"loop_number":"NA","everTouched":null},{"id":"test","shape":"parallelogram","outlier_type":2,"choice":2,"outlierPosition":2,"success":true,"majorityOfMostRegularShapes":true,"rt":4428.199999994831,"rot1":25,"rot2":-15,"rot3":5,"rot4":-5,"rot5":15,"rot6":-25,"dil1":0.875,"dil2":1.075,"dil3":0.975,"dil4":1.025,"dil5":1.125,"dil6":0.925,"rots":[25,-15,5,-5,15,-25],"dils":[0.875,1.075,0.975,1.025,1.125,0.925],"loop_number":"NA","everTouched":null},{"id":"test","shape":"rustedHinge","outlier_type":1,"choice":1,"outlierPosition":1,"success":true,"majorityOfMostRegularShapes":true,"rt":9590.399999986403,"rot1":15,"rot2":-15,"rot3":25,"rot4":-25,"rot5":5,"rot6":-5,"dil1":1.075,"dil2":1.125,"dil3":1.025,"dil4":0.875,"dil5":0.975,"dil6":0.925,"rots":[15,-15,25,-25,5,-5],"dils":[1.075,1.125,1.025,0.875,0.975,0.925],"loop_number":"NA","everTouched":null},{"id":"test","shape":"kite","outlier_type":2,"choice":1,"outlierPosition":1,"success":true,"majorityOfMostRegularShapes":true,"rt":6925.300000002608,"rot1":-25,"rot2":25,"rot3":-5,"rot4":15,"rot5":5,"rot6":-15,"dil1":0.875,"dil2":1.125,"dil3":1.025,"dil4":0.925,"dil5":0.975,"dil6":1.075,"rots":[-25,25,-5,15,5,-15],"dils":[0.875,1.125,1.025,0.925,0.975,1.075],"loop_number":"NA","everTouched":null},{"id":"test","shape":"isoTrapezoid","outlier_type":3,"choice":1,"outlierPosition":1,"success":true,"majorityOfMostRegularShapes":true,"rt":10906.300000002375,"rot1":-5,"rot2":25,"rot3":15,"rot4":5,"rot5":-15,"rot6":-25,"dil1":1.075,"dil2":0.875,"dil3":0.925,"dil4":1.125,"dil5":1.025,"dil6":0.975,"rots":[-5,25,15,5,-15,-25],"dils":[1.075,0.875,0.925,1.125,1.025,0.975],"loop_number":"NA","everTouched":null},{"id":"test","shape":"losange","outlier_type":1,"choice":0,"outlierPosition":0,"success":true,"majorityOfMostRegularShapes":true,"rt":5467.299999989336,"rot1":-5,"rot2":-15,"rot3":15,"rot4":25,"rot5":-25,"rot6":5,"dil1":0.975,"dil2":0.875,"dil3":0.925,"dil4":1.025,"dil5":1.125,"dil6":1.075,"rots":[-5,-15,15,25,-25,5],"dils":[0.975,0.875,0.925,1.025,1.125,1.075],"loop_number":"NA","everTouched":null},{"id":"test","shape":"hinge","outlier_type":3,"choice":4,"outlierPosition":4,"success":true,"majorityOfMostRegularShapes":true,"rt":6074.200000002747,"rot1":15,"rot2":25,"rot3":-5,"rot4":5,"rot5":-15,"rot6":-25,"dil1":0.875,"dil2":0.975,"dil3":0.925,"dil4":1.075,"dil5":1.125,"dil6":1.025,"rots":[15,25,-5,5,-15,-25],"dils":[0.875,0.975,0.925,1.075,1.125,1.025],"loop_number":"NA","everTouched":null},{"id":"test","shape":"rightKite","outlier_type":0,"choice":2,"outlierPosition":2,"success":true,"majorityOfMostRegularShapes":true,"rt":4398.300000000745,"rot1":-25,"rot2":25,"rot3":-15,"rot4":5,"rot5":-5,"rot6":15,"dil1":1.075,"dil2":1.025,"dil3":0.925,"dil4":0.975,"dil5":0.875,"dil6":1.125,"rots":[-25,25,-15,5,-5,15],"dils":[1.075,1.025,0.925,0.975,0.875,1.125],"loop_number":"NA","everTouched":null},{"id":"test","shape":"random","outlier_type":3,"choice":3,"outlierPosition":3,"success":true,"majorityOfMostRegularShapes":true,"rt":5608.5000000020955,"rot1":-15,"rot2":5,"rot3":-25,"rot4":15,"rot5":25,"rot6":-5,"dil1":1.025,"dil2":0.925,"dil3":0.875,"dil4":1.125,"dil5":0.975,"dil6":1.075,"rots":[-15,5,-25,15,25,-5],"dils":[1.025,0.925,0.875,1.125,0.975,1.075],"loop_number":"NA","everTouched":null},{"id":"test","shape":"isoTrapezoid","outlier_type":1,"choice":5,"outlierPosition":5,"success":true,"majorityOfMostRegularShapes":true,"rt":3418.2000000146218,"rot1":5,"rot2":-5,"rot3":-25,"rot4":-15,"rot5":15,"rot6":25,"dil1":1.125,"dil2":1.025,"dil3":1.075,"dil4":0.975,"dil5":0.925,"dil6":0.875,"rots":[5,-5,-25,-15,15,25],"dils":[1.125,1.025,1.075,0.975,0.925,0.875],"loop_number":"NA","everTouched":null},{"id":"test","shape":"rectangle","outlier_type":3,"choice":3,"outlierPosition":3,"success":true,"majorityOfMostRegularShapes":true,"rt":4638.200000015786,"rot1":-15,"rot2":25,"rot3":5,"rot4":15,"rot5":-25,"rot6":-5,"dil1":1.125,"dil2":0.975,"dil3":0.875,"dil4":0.925,"dil5":1.075,"dil6":1.025,"rots":[-15,25,5,15,-25,-5],"dils":[1.125,0.975,0.875,0.925,1.075,1.025],"loop_number":"NA","everTouched":null},{"id":"test","shape":"trapezoid","outlier_type":1,"choice":2,"outlierPosition":2,"success":true,"majorityOfMostRegularShapes":true,"rt":1931.2000000209082,"rot1":-25,"rot2":15,"rot3":-15,"rot4":-5,"rot5":5,"rot6":25,"dil1":1.025,"dil2":1.075,"dil3":0.925,"dil4":0.875,"dil5":0.975,"dil6":1.125,"rots":[-25,15,-15,-5,5,25],"dils":[1.025,1.075,0.925,0.875,0.975,1.125],"loop_number":"NA","everTouched":null},{"id":"test","shape":"square","outlier_type":3,"choice":0,"outlierPosition":0,"success":true,"majorityOfMostRegularShapes":true,"rt":2700.0999999872874,"rot1":15,"rot2":5,"rot3":-25,"rot4":-5,"rot5":-15,"rot6":25,"dil1":1.025,"dil2":0.975,"dil3":0.875,"dil4":1.125,"dil5":0.925,"dil6":1.075,"rots":[15,5,-25,-5,-15,25],"dils":[1.025,0.975,0.875,1.125,0.925,1.075],"loop_number":"NA","everTouched":null},{"id":"test","shape":"trapezoid","outlier_type":0,"choice":5,"outlierPosition":5,"success":true,"majorityOfMostRegularShapes":true,"rt":3196.799999976065,"rot1":-25,"rot2":25,"rot3":5,"rot4":15,"rot5":-15,"rot6":-5,"dil1":1.025,"dil2":0.975,"dil3":1.075,"dil4":0.925,"dil5":0.875,"dil6":1.125,"rots":[-25,25,5,15,-15,-5],"dils":[1.025,0.975,1.075,0.925,0.875,1.125],"loop_number":"NA","everTouched":null},{"id":"test","shape":"losange","outlier_type":2,"choice":1,"outlierPosition":1,"success":true,"majorityOfMostRegularShapes":true,"rt":7832.599999994272,"rot1":25,"rot2":-25,"rot3":15,"rot4":5,"rot5":-5,"rot6":-15,"dil1":1.075,"dil2":1.125,"dil3":0.875,"dil4":0.975,"dil5":0.925,"dil6":1.025,"rots":[25,-25,15,5,-5,-15],"dils":[1.075,1.125,0.875,0.975,0.925,1.025],"loop_number":"NA","everTouched":null},{"id":"test","shape":"rectangle","outlier_type":0,"choice":0,"outlierPosition":0,"success":true,"majorityOfMostRegularShapes":true,"rt":3832.399999984773,"rot1":25,"rot2":-15,"rot3":-25,"rot4":15,"rot5":5,"rot6":-5,"dil1":0.975,"dil2":0.875,"dil3":1.025,"dil4":1.075,"dil5":1.125,"dil6":0.925,"rots":[25,-15,-25,15,5,-5],"dils":[0.975,0.875,1.025,1.075,1.125,0.925],"loop_number":"NA","everTouched":null},{"id":"test","shape":"kite","outlier_type":3,"choice":4,"outlierPosition":4,"success":true,"majorityOfMostRegularShapes":true,"rt":4561.300000001211,"rot1":25,"rot2":-25,"rot3":-15,"rot4":15,"rot5":5,"rot6":-5,"dil1":1.025,"dil2":1.075,"dil3":1.125,"dil4":0.875,"dil5":0.975,"dil6":0.925,"rots":[25,-25,-15,15,5,-5],"dils":[1.025,1.075,1.125,0.875,0.975,0.925],"loop_number":"NA","everTouched":null},{"id":"test","shape":"hinge","outlier_type":0,"choice":1,"outlierPosition":3,"success":false,"majorityOfMostRegularShapes":true,"rt":9111.600000003818,"rot1":5,"rot2":25,"rot3":-25,"rot4":-15,"rot5":15,"rot6":-5,"dil1":0.925,"dil2":1.075,"dil3":1.125,"dil4":0.875,"dil5":1.025,"dil6":0.975,"rots":[5,25,-25,-15,15,-5],"dils":[0.925,1.075,1.125,0.875,1.025,0.975],"loop_number":"NA","everTouched":null},{"id":"test","shape":"losange","outlier_type":3,"choice":4,"outlierPosition":4,"success":true,"majorityOfMostRegularShapes":true,"rt":8252.000000007683,"rot1":-5,"rot2":25,"rot3":-15,"rot4":5,"rot5":15,"rot6":-25,"dil1":1.075,"dil2":0.875,"dil3":0.975,"dil4":0.925,"dil5":1.025,"dil6":1.125,"rots":[-5,25,-15,5,15,-25],"dils":[1.075,0.875,0.975,0.925,1.025,1.125],"loop_number":"NA","everTouched":null},{"id":"test","shape":"trapezoid","outlier_type":2,"choice":5,"outlierPosition":5,"success":true,"majorityOfMostRegularShapes":true,"rt":3116.99999999837,"rot1":-5,"rot2":25,"rot3":15,"rot4":-15,"rot5":5,"rot6":-25,"dil1":1.125,"dil2":0.875,"dil3":0.975,"dil4":1.075,"dil5":1.025,"dil6":0.925,"rots":[-5,25,15,-15,5,-25],"dils":[1.125,0.875,0.975,1.075,1.025,0.925],"loop_number":"NA","everTouched":null},{"id":"test","shape":"rustedHinge","outlier_type":3,"choice":5,"outlierPosition":4,"success":false,"majorityOfMostRegularShapes":true,"rt":9901.000000012573,"rot1":-15,"rot2":25,"rot3":15,"rot4":5,"rot5":-25,"rot6":-5,"dil1":1.075,"dil2":0.875,"dil3":1.125,"dil4":0.925,"dil5":0.975,"dil6":1.025,"rots":[-15,25,15,5,-25,-5],"dils":[1.075,0.875,1.125,0.925,0.975,1.025],"loop_number":"NA","everTouched":null},{"id":"test","shape":"rightKite","outlier_type":2,"choice":1,"outlierPosition":3,"success":false,"majorityOfMostRegularShapes":true,"rt":12163.000000000466,"rot1":5,"rot2":-25,"rot3":15,"rot4":-5,"rot5":25,"rot6":-15,"dil1":0.875,"dil2":0.975,"dil3":0.925,"dil4":1.025,"dil5":1.125,"dil6":1.075,"rots":[5,-25,15,-5,25,-15],"dils":[0.875,0.975,0.925,1.025,1.125,1.075],"loop_number":"NA","everTouched":null},{"id":"test","shape":"square","outlier_type":0,"choice":1,"outlierPosition":1,"success":true,"majorityOfMostRegularShapes":true,"rt":3008.2000000111293,"rot1":-5,"rot2":5,"rot3":-15,"rot4":25,"rot5":-25,"rot6":15,"dil1":0.975,"dil2":0.925,"dil3":0.875,"dil4":1.125,"dil5":1.075,"dil6":1.025,"rots":[-5,5,-15,25,-25,15],"dils":[0.975,0.925,0.875,1.125,1.075,1.025],"loop_number":"NA","everTouched":null},{"id":"test","shape":"kite","outlier_type":1,"choice":1,"outlierPosition":5,"success":false,"majorityOfMostRegularShapes":true,"rt":7250.10000000475,"rot1":-15,"rot2":-25,"rot3":25,"rot4":-5,"rot5":15,"rot6":5,"dil1":0.975,"dil2":0.875,"dil3":1.075,"dil4":0.925,"dil5":1.125,"dil6":1.025,"rots":[-15,-25,25,-5,15,5],"dils":[0.975,0.875,1.075,0.925,1.125,1.025],"loop_number":"NA","everTouched":null},{"id":"test","shape":"rightKite","outlier_type":3,"choice":4,"outlierPosition":4,"success":true,"majorityOfMostRegularShapes":true,"rt":8156.9000000017695,"rot1":-25,"rot2":5,"rot3":15,"rot4":-15,"rot5":-5,"rot6":25,"dil1":1.025,"dil2":1.125,"dil3":1.075,"dil4":0.925,"dil5":0.975,"dil6":0.875,"rots":[-25,5,15,-15,-5,25],"dils":[1.025,1.125,1.075,0.925,0.975,0.875],"loop_number":"NA","everTouched":null},{"id":"test","shape":"square","outlier_type":1,"choice":1,"outlierPosition":1,"success":true,"majorityOfMostRegularShapes":true,"rt":3503.2000000064727,"rot1":15,"rot2":-25,"rot3":25,"rot4":-5,"rot5":5,"rot6":-15,"dil1":1.075,"dil2":0.925,"dil3":0.975,"dil4":1.025,"dil5":1.125,"dil6":0.875,"rots":[15,-25,25,-5,5,-15],"dils":[1.075,0.925,0.975,1.025,1.125,0.875],"loop_number":"NA","everTouched":null},{"id":"test","shape":"random","outlier_type":2,"choice":0,"outlierPosition":3,"success":false,"majorityOfMostRegularShapes":true,"rt":15707.999999984168,"rot1":-25,"rot2":5,"rot3":25,"rot4":-5,"rot5":15,"rot6":-15,"dil1":1.125,"dil2":0.875,"dil3":0.975,"dil4":1.075,"dil5":0.925,"dil6":1.025,"rots":[-25,5,25,-5,15,-15],"dils":[1.125,0.875,0.975,1.075,0.925,1.025],"loop_number":"NA","everTouched":null},{"id":"test","shape":"hinge","outlier_type":1,"choice":4,"outlierPosition":4,"success":true,"majorityOfMostRegularShapes":true,"rt":5136.999999987893,"rot1":15,"rot2":5,"rot3":-25,"rot4":-5,"rot5":25,"rot6":-15,"dil1":1.025,"dil2":1.125,"dil3":1.075,"dil4":0.975,"dil5":0.875,"dil6":0.925,"rots":[15,5,-25,-5,25,-15],"dils":[1.025,1.125,1.075,0.975,0.875,0.925],"loop_number":"NA","everTouched":null},{"id":"test","shape":"isoTrapezoid","outlier_type":0,"choice":5,"outlierPosition":5,"success":true,"majorityOfMostRegularShapes":true,"rt":11454.100000002654,"rot1":5,"rot2":-25,"rot3":-5,"rot4":15,"rot5":-15,"rot6":25,"dil1":1.075,"dil2":0.975,"dil3":1.125,"dil4":0.925,"dil5":1.025,"dil6":0.875,"rots":[5,-25,-5,15,-15,25],"dils":[1.075,0.975,1.125,0.925,1.025,0.875],"loop_number":"NA","everTouched":null},{"id":"test","shape":"parallelogram","outlier_type":1,"choice":1,"outlierPosition":1,"success":true,"majorityOfMostRegularShapes":true,"rt":3878.8000000058673,"rot1":25,"rot2":-25,"rot3":15,"rot4":5,"rot5":-5,"rot6":-15,"dil1":1.125,"dil2":0.875,"dil3":1.025,"dil4":0.975,"dil5":0.925,"dil6":1.075,"rots":[25,-25,15,5,-5,-15],"dils":[1.125,0.875,1.025,0.975,0.925,1.075],"loop_number":"NA","everTouched":null},{"id":"test","shape":"isoTrapezoid","outlier_type":2,"choice":4,"outlierPosition":4,"success":true,"majorityOfMostRegularShapes":true,"rt":6459.900000016205,"rot1":-5,"rot2":15,"rot3":-25,"rot4":5,"rot5":-15,"rot6":25,"dil1":1.125,"dil2":1.075,"dil3":0.925,"dil4":1.025,"dil5":0.875,"dil6":0.975,"rots":[-5,15,-25,5,-15,25],"dils":[1.125,1.075,0.925,1.025,0.875,0.975],"loop_number":"NA","everTouched":null},{"id":"test","shape":"trapezoid","outlier_type":3,"choice":2,"outlierPosition":2,"success":true,"majorityOfMostRegularShapes":true,"rt":9814.500000007683,"rot1":-15,"rot2":15,"rot3":-5,"rot4":5,"rot5":25,"rot6":-25,"dil1":0.875,"dil2":1.075,"dil3":1.125,"dil4":0.975,"dil5":0.925,"dil6":1.025,"rots":[-15,15,-5,5,25,-25],"dils":[0.875,1.075,1.125,0.975,0.925,1.025],"loop_number":"NA","everTouched":null}],"desiredDistance":0.3,"trial_type":"oddball-grid","trial_index":3,"time_elapsed":485654,"internal_node_id":"0.0-3.0","ID":"z8zowa70hc"},{"success":true,"trial_type":"fullscreen","trial_index":4,"time_elapsed":491332,"internal_node_id":"0.0-4.0","ID":"z8zowa70hc"}]