[{"success":true,"trial_type":"fullscreen","trial_index":0,"time_elapsed":515153391,"internal_node_id":"0.0-0.0","ID":"xmjzr5jz39"},{"results":[{"id":"train-images","shape":"6","outlier_type":"NA","choice":4,"outlierPosition":4,"success":true,"majorityOfMostRegularShapes":"NA","rt":8266.600000000559,"rot1":15,"rot2":-5,"rot3":25,"rot4":-25,"rot5":5,"rot6":-15,"dil1":1.025,"dil2":0.975,"dil3":1.125,"dil4":0.875,"dil5":0.925,"dil6":1.075,"rots":[15,-5,25,-25,5,-15],"dils":[1.025,0.975,1.125,0.875,0.925,1.075],"loop_number":1,"everTouched":null},{"id":"train-images","shape":"3","outlier_type":"NA","choice":0,"outlierPosition":0,"success":true,"majorityOfMostRegularShapes":"NA","rt":1994.8999999994412,"rot1":15,"rot2":25,"rot3":-5,"rot4":-25,"rot5":5,"rot6":-15,"dil1":0.925,"dil2":1.125,"dil3":0.975,"dil4":1.075,"dil5":0.875,"dil6":1.025,"rots":[15,25,-5,-25,5,-15],"dils":[0.925,1.125,0.975,1.075,0.875,1.025],"loop_number":1,"everTouched":null},{"id":"train-images","shape":"7","outlier_type":"NA","choice":4,"outlierPosition":4,"success":true,"majorityOfMostRegularShapes":"NA","rt":1679.4000000008382,"rot1":25,"rot2":15,"rot3":-5,"rot4":5,"rot5":-15,"rot6":-25,"dil1":0.975,"dil2":0.875,"dil3":1.075,"dil4":1.125,"dil5":1.025,"dil6":0.925,"rots":[25,15,-5,5,-15,-25],"dils":[0.975,0.875,1.075,1.125,1.025,0.925],"loop_number":1,"everTouched":null},{"id":"train-images","shape":"4","outlier_type":"NA","choice":0,"outlierPosition":0,"success":true,"majorityOfMostRegularShapes":"NA","rt":2187.4000000003725,"rot1":-25,"rot2":-5,"rot3":5,"rot4":25,"rot5":15,"rot6":-15,"dil1":0.975,"dil2":1.075,"dil3":1.025,"dil4":0.925,"dil5":0.875,"dil6":1.125,"rots":[-25,-5,5,25,15,-15],"dils":[0.975,1.075,1.025,0.925,0.875,1.125],"loop_number":1,"everTouched":null},{"id":"train-images","shape":"1","outlier_type":"NA","choice":2,"outlierPosition":2,"success":true,"majorityOfMostRegularShapes":"NA","rt":1466.6000000000931,"rot1":25,"rot2":-15,"rot3":-25,"rot4":-5,"rot5":5,"rot6":15,"dil1":0.925,"dil2":1.075,"dil3":0.975,"dil4":0.875,"dil5":1.125,"dil6":1.025,"rots":[25,-15,-25,-5,5,15],"dils":[0.925,1.075,0.975,0.875,1.125,1.025],"loop_number":1,"everTouched":null},{"id":"train-images","shape":"10","outlier_type":"NA","choice":2,"outlierPosition":2,"success":true,"majorityOfMostRegularShapes":"NA","rt":2134,"rot1":-5,"rot2":25,"rot3":15,"rot4":5,"rot5":-25,"rot6":-15,"dil1":0.925,"dil2":1.025,"dil3":1.125,"dil4":1.075,"dil5":0.975,"dil6":0.875,"rots":[-5,25,15,5,-25,-15],"dils":[0.925,1.025,1.125,1.075,0.975,0.875],"loop_number":1,"everTouched":null},{"id":"train-images","shape":"5","outlier_type":"NA","choice":5,"outlierPosition":5,"success":true,"majorityOfMostRegularShapes":"NA","rt":1536,"rot1":5,"rot2":15,"rot3":-15,"rot4":25,"rot5":-5,"rot6":-25,"dil1":1.025,"dil2":0.875,"dil3":1.075,"dil4":0.975,"dil5":0.925,"dil6":1.125,"rots":[5,15,-15,25,-5,-25],"dils":[1.025,0.875,1.075,0.975,0.925,1.125],"loop_number":1,"everTouched":null},{"id":"train-images","shape":"9","outlier_type":"NA","choice":5,"outlierPosition":5,"success":true,"majorityOfMostRegularShapes":"NA","rt":1505.9000000003725,"rot1":25,"rot2":15,"rot3":5,"rot4":-15,"rot5":-5,"rot6":-25,"dil1":0.875,"dil2":0.975,"dil3":0.925,"dil4":1.025,"dil5":1.075,"dil6":1.125,"rots":[25,15,5,-15,-5,-25],"dils":[0.875,0.975,0.925,1.025,1.075,1.125],"loop_number":1,"everTouched":null},{"id":"train-images","shape":"8","outlier_type":"NA","choice":1,"outlierPosition":1,"success":true,"majorityOfMostRegularShapes":"NA","rt":1684.1999999997206,"rot1":25,"rot2":5,"rot3":15,"rot4":-15,"rot5":-25,"rot6":-5,"dil1":0.875,"dil2":0.925,"dil3":1.075,"dil4":0.975,"dil5":1.025,"dil6":1.125,"rots":[25,5,15,-15,-25,-5],"dils":[0.875,0.925,1.075,0.975,1.025,1.125],"loop_number":1,"everTouched":null},{"id":"train-images","shape":"2","outlier_type":"NA","choice":0,"outlierPosition":0,"success":true,"majorityOfMostRegularShapes":"NA","rt":2898.899999998044,"rot1":-5,"rot2":25,"rot3":15,"rot4":-25,"rot5":5,"rot6":-15,"dil1":0.925,"dil2":0.975,"dil3":1.025,"dil4":1.075,"dil5":1.125,"dil6":0.875,"rots":[-5,25,15,-25,5,-15],"dils":[0.925,0.975,1.025,1.075,1.125,0.875],"loop_number":1,"everTouched":null}],"trial_type":"oddball-grid-image","trial_index":1,"time_elapsed":515210229,"internal_node_id":"0.0-1.0","ID":"xmjzr5jz39"},{"results":[{"id":"train","shape":null,"outlier_type":null,"choice":0,"outlierPosition":0,"success":true,"majorityOfMostRegularShapes":null,"rt":2455.6999999983236,"rot1":25,"rot2":5,"rot3":-5,"rot4":-25,"rot5":-15,"rot6":15,"dil1":0.975,"dil2":0.925,"dil3":1.025,"dil4":0.875,"dil5":1.125,"dil6":1.075,"rots":[25,5,-5,-25,-15,15],"dils":[0.975,0.925,1.025,0.875,1.125,1.075],"loop_number":1,"everTouched":null},{"id":"train","shape":null,"outlier_type":null,"choice":0,"outlierPosition":0,"success":true,"majorityOfMostRegularShapes":null,"rt":2473.5,"rot1":25,"rot2":-5,"rot3":-25,"rot4":15,"rot5":5,"rot6":-15,"dil1":1.125,"dil2":1.075,"dil3":0.875,"dil4":0.925,"dil5":1.025,"dil6":0.975,"rots":[25,-5,-25,15,5,-15],"dils":[1.125,1.075,0.875,0.925,1.025,0.975],"loop_number":1,"everTouched":null},{"id":"train","shape":null,"outlier_type":null,"choice":5,"outlierPosition":5,"success":true,"majorityOfMostRegularShapes":null,"rt":5024.800000000745,"rot1":-25,"rot2":15,"rot3":-5,"rot4":25,"rot5":5,"rot6":-15,"dil1":0.875,"dil2":0.975,"dil3":0.925,"dil4":1.025,"dil5":1.125,"dil6":1.075,"rots":[-25,15,-5,25,5,-15],"dils":[0.875,0.975,0.925,1.025,1.125,1.075],"loop_number":1,"everTouched":null},{"id":"train","shape":null,"outlier_type":null,"choice":0,"outlierPosition":0,"success":true,"majorityOfMostRegularShapes":null,"rt":3224.399999999441,"rot1":-25,"rot2":25,"rot3":-5,"rot4":15,"rot5":5,"rot6":-15,"dil1":0.975,"dil2":1.125,"dil3":0.925,"dil4":0.875,"dil5":1.025,"dil6":1.075,"rots":[-25,25,-5,15,5,-15],"dils":[0.975,1.125,0.925,0.875,1.025,1.075],"loop_number":1,"everTouched":null},{"id":"train","shape":null,"outlier_type":null,"choice":3,"outlierPosition":3,"success":true,"majorityOfMostRegularShapes":null,"rt":2643.60000000149,"rot1":25,"rot2":5,"rot3":-15,"rot4":-5,"rot5":-25,"rot6":15,"dil1":0.925,"dil2":1.125,"dil3":1.075,"dil4":0.975,"dil5":0.875,"dil6":1.025,"rots":[25,5,-15,-5,-25,15],"dils":[0.925,1.125,1.075,0.975,0.875,1.025],"loop_number":1,"everTouched":null},{"id":"train","shape":null,"outlier_type":null,"choice":4,"outlierPosition":4,"success":true,"majorityOfMostRegularShapes":null,"rt":2451.9999999990687,"rot1":-5,"rot2":-25,"rot3":15,"rot4":5,"rot5":-15,"rot6":25,"dil1":0.975,"dil2":0.925,"dil3":1.025,"dil4":1.075,"dil5":0.875,"dil6":1.125,"rots":[-5,-25,15,5,-15,25],"dils":[0.975,0.925,1.025,1.075,0.875,1.125],"loop_number":1,"everTouched":null}],"desiredDistance":0.3,"trial_type":"oddball-grid-easy","trial_index":2,"time_elapsed":515258105,"internal_node_id":"0.0-2.0","ID":"xmjzr5jz39"},{"results":[{"id":"test","shape":"losange","outlier_type":0,"choice":1,"outlierPosition":1,"success":true,"majorityOfMostRegularShapes":true,"rt":3500.7999999998137,"rot1":15,"rot2":-5,"rot3":-25,"rot4":-15,"rot5":25,"rot6":5,"dil1":1.025,"dil2":1.075,"dil3":0.975,"dil4":1.125,"dil5":0.875,"dil6":0.925,"rots":[15,-5,-25,-15,25,5],"dils":[1.025,1.075,0.975,1.125,0.875,0.925],"loop_number":"NA","everTouched":null},{"id":"test","shape":"random","outlier_type":2,"choice":5,"outlierPosition":5,"success":true,"majorityOfMostRegularShapes":true,"rt":3622.2000000001863,"rot1":-5,"rot2":-15,"rot3":25,"rot4":5,"rot5":-25,"rot6":15,"dil1":1.125,"dil2":0.925,"dil3":1.025,"dil4":1.075,"dil5":0.975,"dil6":0.875,"rots":[-5,-15,25,5,-25,15],"dils":[1.125,0.925,1.025,1.075,0.975,0.875],"loop_number":"NA","everTouched":null},{"id":"test","shape":"trapezoid","outlier_type":1,"choice":2,"outlierPosition":2,"success":true,"majorityOfMostRegularShapes":true,"rt":2961.300000000745,"rot1":15,"rot2":-25,"rot3":5,"rot4":-5,"rot5":25,"rot6":-15,"dil1":1.075,"dil2":1.025,"dil3":0.975,"dil4":0.925,"dil5":0.875,"dil6":1.125,"rots":[15,-25,5,-5,25,-15],"dils":[1.075,1.025,0.975,0.925,0.875,1.125],"loop_number":"NA","everTouched":null},{"id":"test","shape":"hinge","outlier_type":2,"choice":0,"outlierPosition":0,"success":true,"majorityOfMostRegularShapes":true,"rt":3492.2999999998137,"rot1":25,"rot2":-15,"rot3":-25,"rot4":-5,"rot5":5,"rot6":15,"dil1":0.975,"dil2":1.025,"dil3":0.925,"dil4":1.125,"dil5":1.075,"dil6":0.875,"rots":[25,-15,-25,-5,5,15],"dils":[0.975,1.025,0.925,1.125,1.075,0.875],"loop_number":"NA","everTouched":null},{"id":"test","shape":"losange","outlier_type":3,"choice":2,"outlierPosition":2,"success":true,"majorityOfMostRegularShapes":true,"rt":3035.7000000001863,"rot1":-15,"rot2":5,"rot3":15,"rot4":25,"rot5":-5,"rot6":-25,"dil1":1.125,"dil2":0.975,"dil3":1.075,"dil4":0.875,"dil5":1.025,"dil6":0.925,"rots":[-15,5,15,25,-5,-25],"dils":[1.125,0.975,1.075,0.875,1.025,0.925],"loop_number":"NA","everTouched":null},{"id":"test","shape":"isoTrapezoid","outlier_type":0,"choice":2,"outlierPosition":2,"success":true,"majorityOfMostRegularShapes":true,"rt":2659.9000000003725,"rot1":25,"rot2":15,"rot3":-25,"rot4":-15,"rot5":-5,"rot6":5,"dil1":0.925,"dil2":1.125,"dil3":1.025,"dil4":1.075,"dil5":0.875,"dil6":0.975,"rots":[25,15,-25,-15,-5,5],"dils":[0.925,1.125,1.025,1.075,0.875,0.975],"loop_number":"NA","everTouched":null},{"id":"test","shape":"rectangle","outlier_type":1,"choice":5,"outlierPosition":5,"success":true,"majorityOfMostRegularShapes":true,"rt":1508.3000000016764,"rot1":-5,"rot2":5,"rot3":15,"rot4":-15,"rot5":25,"rot6":-25,"dil1":1.125,"dil2":1.025,"dil3":0.975,"dil4":0.925,"dil5":1.075,"dil6":0.875,"rots":[-5,5,15,-15,25,-25],"dils":[1.125,1.025,0.975,0.925,1.075,0.875],"loop_number":"NA","everTouched":null},{"id":"test","shape":"random","outlier_type":0,"choice":3,"outlierPosition":3,"success":true,"majorityOfMostRegularShapes":true,"rt":10923.200000001118,"rot1":-5,"rot2":5,"rot3":-15,"rot4":15,"rot5":25,"rot6":-25,"dil1":1.125,"dil2":1.025,"dil3":0.925,"dil4":0.875,"dil5":1.075,"dil6":0.975,"rots":[-5,5,-15,15,25,-25],"dils":[1.125,1.025,0.925,0.875,1.075,0.975],"loop_number":"NA","everTouched":null},{"id":"test","shape":"isoTrapezoid","outlier_type":2,"choice":4,"outlierPosition":4,"success":true,"majorityOfMostRegularShapes":true,"rt":2728.5,"rot1":-5,"rot2":5,"rot3":15,"rot4":-15,"rot5":-25,"rot6":25,"dil1":0.875,"dil2":0.975,"dil3":1.125,"dil4":1.025,"dil5":0.925,"dil6":1.075,"rots":[-5,5,15,-15,-25,25],"dils":[0.875,0.975,1.125,1.025,0.925,1.075],"loop_number":"NA","everTouched":null},{"id":"test","shape":"trapezoid","outlier_type":0,"choice":1,"outlierPosition":1,"success":true,"majorityOfMostRegularShapes":true,"rt":3685.7000000001863,"rot1":15,"rot2":-5,"rot3":-25,"rot4":25,"rot5":5,"rot6":-15,"dil1":0.925,"dil2":1.075,"dil3":0.875,"dil4":0.975,"dil5":1.125,"dil6":1.025,"rots":[15,-5,-25,25,5,-15],"dils":[0.925,1.075,0.875,0.975,1.125,1.025],"loop_number":"NA","everTouched":null},{"id":"test","shape":"losange","outlier_type":1,"choice":5,"outlierPosition":5,"success":true,"majorityOfMostRegularShapes":true,"rt":2839.7999999988824,"rot1":-25,"rot2":25,"rot3":15,"rot4":5,"rot5":-5,"rot6":-15,"dil1":0.875,"dil2":1.025,"dil3":1.075,"dil4":0.925,"dil5":1.125,"dil6":0.975,"rots":[-25,25,15,5,-5,-15],"dils":[0.875,1.025,1.075,0.925,1.125,0.975],"loop_number":"NA","everTouched":null},{"id":"test","shape":"isoTrapezoid","outlier_type":3,"choice":3,"outlierPosition":3,"success":true,"majorityOfMostRegularShapes":true,"rt":4884.199999998324,"rot1":-5,"rot2":25,"rot3":15,"rot4":5,"rot5":-15,"rot6":-25,"dil1":0.875,"dil2":1.025,"dil3":1.075,"dil4":0.925,"dil5":1.125,"dil6":0.975,"rots":[-5,25,15,5,-15,-25],"dils":[0.875,1.025,1.075,0.925,1.125,0.975],"loop_number":"NA","everTouched":null},{"id":"test","shape":"kite","outlier_type":1,"choice":5,"outlierPosition":5,"success":true,"majorityOfMostRegularShapes":true,"rt":3469.4999999990687,"rot1":5,"rot2":15,"rot3":-15,"rot4":-25,"rot5":-5,"rot6":25,"dil1":0.875,"dil2":1.075,"dil3":0.925,"dil4":1.125,"dil5":1.025,"dil6":0.975,"rots":[5,15,-15,-25,-5,25],"dils":[0.875,1.075,0.925,1.125,1.025,0.975],"loop_number":"NA","everTouched":null},{"id":"test","shape":"rustedHinge","outlier_type":3,"choice":5,"outlierPosition":4,"success":false,"majorityOfMostRegularShapes":true,"rt":6687.699999998324,"rot1":-5,"rot2":15,"rot3":-15,"rot4":25,"rot5":5,"rot6":-25,"dil1":0.875,"dil2":1.125,"dil3":1.075,"dil4":1.025,"dil5":0.975,"dil6":0.925,"rots":[-5,15,-15,25,5,-25],"dils":[0.875,1.125,1.075,1.025,0.975,0.925],"loop_number":"NA","everTouched":null},{"id":"test","shape":"kite","outlier_type":0,"choice":5,"outlierPosition":5,"success":true,"majorityOfMostRegularShapes":true,"rt":4670.5999999996275,"rot1":-5,"rot2":5,"rot3":-15,"rot4":25,"rot5":15,"rot6":-25,"dil1":1.025,"dil2":0.875,"dil3":0.925,"dil4":1.075,"dil5":0.975,"dil6":1.125,"rots":[-5,5,-15,25,15,-25],"dils":[1.025,0.875,0.925,1.075,0.975,1.125],"loop_number":"NA","everTouched":null},{"id":"test","shape":"square","outlier_type":2,"choice":3,"outlierPosition":3,"success":true,"majorityOfMostRegularShapes":true,"rt":2875.7000000011176,"rot1":15,"rot2":-15,"rot3":-5,"rot4":5,"rot5":25,"rot6":-25,"dil1":1.025,"dil2":0.925,"dil3":0.875,"dil4":1.125,"dil5":0.975,"dil6":1.075,"rots":[15,-15,-5,5,25,-25],"dils":[1.025,0.925,0.875,1.125,0.975,1.075],"loop_number":"NA","everTouched":null},{"id":"test","shape":"rightKite","outlier_type":1,"choice":0,"outlierPosition":0,"success":true,"majorityOfMostRegularShapes":true,"rt":2493.400000001304,"rot1":-15,"rot2":5,"rot3":25,"rot4":-5,"rot5":15,"rot6":-25,"dil1":0.875,"dil2":1.125,"dil3":1.075,"dil4":1.025,"dil5":0.925,"dil6":0.975,"rots":[-15,5,25,-5,15,-25],"dils":[0.875,1.125,1.075,1.025,0.925,0.975],"loop_number":"NA","everTouched":null},{"id":"test","shape":"rustedHinge","outlier_type":0,"choice":4,"outlierPosition":4,"success":true,"majorityOfMostRegularShapes":true,"rt":6335.199999999255,"rot1":-15,"rot2":5,"rot3":-25,"rot4":15,"rot5":25,"rot6":-5,"dil1":0.925,"dil2":0.975,"dil3":1.025,"dil4":1.125,"dil5":0.875,"dil6":1.075,"rots":[-15,5,-25,15,25,-5],"dils":[0.925,0.975,1.025,1.125,0.875,1.075],"loop_number":"NA","everTouched":null},{"id":"test","shape":"losange","outlier_type":2,"choice":3,"outlierPosition":3,"success":true,"majorityOfMostRegularShapes":true,"rt":2774.2000000001863,"rot1":-5,"rot2":-25,"rot3":5,"rot4":25,"rot5":15,"rot6":-15,"dil1":0.975,"dil2":0.875,"dil3":1.125,"dil4":0.925,"dil5":1.025,"dil6":1.075,"rots":[-5,-25,5,25,15,-15],"dils":[0.975,0.875,1.125,0.925,1.025,1.075],"loop_number":"NA","everTouched":null},{"id":"test","shape":"hinge","outlier_type":0,"choice":0,"outlierPosition":2,"success":false,"majorityOfMostRegularShapes":true,"rt":6580.799999999814,"rot1":25,"rot2":15,"rot3":5,"rot4":-5,"rot5":-25,"rot6":-15,"dil1":1.125,"dil2":0.975,"dil3":0.875,"dil4":1.075,"dil5":0.925,"dil6":1.025,"rots":[25,15,5,-5,-25,-15],"dils":[1.125,0.975,0.875,1.075,0.925,1.025],"loop_number":"NA","everTouched":null},{"id":"test","shape":"isoTrapezoid","outlier_type":1,"choice":3,"outlierPosition":3,"success":true,"majorityOfMostRegularShapes":true,"rt":7055.399999999441,"rot1":-5,"rot2":25,"rot3":-15,"rot4":5,"rot5":15,"rot6":-25,"dil1":1.075,"dil2":0.875,"dil3":1.025,"dil4":1.125,"dil5":0.925,"dil6":0.975,"rots":[-5,25,-15,5,15,-25],"dils":[1.075,0.875,1.025,1.125,0.925,0.975],"loop_number":"NA","everTouched":null},{"id":"test","shape":"trapezoid","outlier_type":3,"choice":3,"outlierPosition":3,"success":true,"majorityOfMostRegularShapes":true,"rt":7374.200000000186,"rot1":5,"rot2":-15,"rot3":25,"rot4":-5,"rot5":-25,"rot6":15,"dil1":0.875,"dil2":1.075,"dil3":1.125,"dil4":1.025,"dil5":0.925,"dil6":0.975,"rots":[5,-15,25,-5,-25,15],"dils":[0.875,1.075,1.125,1.025,0.925,0.975],"loop_number":"NA","everTouched":null},{"id":"test","shape":"rectangle","outlier_type":3,"choice":3,"outlierPosition":3,"success":true,"majorityOfMostRegularShapes":true,"rt":2743.199999999255,"rot1":25,"rot2":15,"rot3":-15,"rot4":5,"rot5":-25,"rot6":-5,"dil1":1.075,"dil2":0.925,"dil3":0.875,"dil4":0.975,"dil5":1.025,"dil6":1.125,"rots":[25,15,-15,5,-25,-5],"dils":[1.075,0.925,0.875,0.975,1.025,1.125],"loop_number":"NA","everTouched":null},{"id":"test","shape":"rightKite","outlier_type":2,"choice":4,"outlierPosition":5,"success":false,"majorityOfMostRegularShapes":true,"rt":12832.899999999441,"rot1":25,"rot2":15,"rot3":5,"rot4":-5,"rot5":-15,"rot6":-25,"dil1":0.925,"dil2":1.025,"dil3":1.075,"dil4":0.875,"dil5":1.125,"dil6":0.975,"rots":[25,15,5,-5,-15,-25],"dils":[0.925,1.025,1.075,0.875,1.125,0.975],"loop_number":"NA","everTouched":null},{"id":"test","shape":"random","outlier_type":1,"choice":0,"outlierPosition":3,"success":false,"majorityOfMostRegularShapes":true,"rt":8806.800000000745,"rot1":15,"rot2":25,"rot3":5,"rot4":-5,"rot5":-15,"rot6":-25,"dil1":1.125,"dil2":0.975,"dil3":0.925,"dil4":1.025,"dil5":1.075,"dil6":0.875,"rots":[15,25,5,-5,-15,-25],"dils":[1.125,0.975,0.925,1.025,1.075,0.875],"loop_number":"NA","everTouched":null},{"id":"test","shape":"parallelogram","outlier_type":3,"choice":1,"outlierPosition":1,"success":true,"majorityOfMostRegularShapes":true,"rt":5446.800000001676,"rot1":5,"rot2":25,"rot3":-15,"rot4":-5,"rot5":15,"rot6":-25,"dil1":1.025,"dil2":1.075,"dil3":0.975,"dil4":0.925,"dil5":1.125,"dil6":0.875,"rots":[5,25,-15,-5,15,-25],"dils":[1.025,1.075,0.975,0.925,1.125,0.875],"loop_number":"NA","everTouched":null},{"id":"test","shape":"rightKite","outlier_type":0,"choice":3,"outlierPosition":3,"success":true,"majorityOfMostRegularShapes":true,"rt":4899.399999999441,"rot1":25,"rot2":-5,"rot3":15,"rot4":-15,"rot5":5,"rot6":-25,"dil1":0.925,"dil2":1.125,"dil3":0.975,"dil4":1.075,"dil5":0.875,"dil6":1.025,"rots":[25,-5,15,-15,5,-25],"dils":[0.925,1.125,0.975,1.075,0.875,1.025],"loop_number":"NA","everTouched":null},{"id":"test","shape":"trapezoid","outlier_type":2,"choice":4,"outlierPosition":4,"success":true,"majorityOfMostRegularShapes":true,"rt":11349.599999999627,"rot1":-5,"rot2":15,"rot3":-25,"rot4":5,"rot5":-15,"rot6":25,"dil1":1.025,"dil2":1.125,"dil3":0.975,"dil4":0.925,"dil5":0.875,"dil6":1.075,"rots":[-5,15,-25,5,-15,25],"dils":[1.025,1.125,0.975,0.925,0.875,1.075],"loop_number":"NA","everTouched":null},{"id":"test","shape":"parallelogram","outlier_type":0,"choice":1,"outlierPosition":1,"success":true,"majorityOfMostRegularShapes":true,"rt":5806.0999999996275,"rot1":-15,"rot2":-25,"rot3":15,"rot4":5,"rot5":-5,"rot6":25,"dil1":1.025,"dil2":1.075,"dil3":1.125,"dil4":0.975,"dil5":0.925,"dil6":0.875,"rots":[-15,-25,15,5,-5,25],"dils":[1.025,1.075,1.125,0.975,0.925,0.875],"loop_number":"NA","everTouched":null},{"id":"test","shape":"kite","outlier_type":3,"choice":3,"outlierPosition":3,"success":true,"majorityOfMostRegularShapes":true,"rt":3379.4000000003725,"rot1":5,"rot2":25,"rot3":15,"rot4":-5,"rot5":-15,"rot6":-25,"dil1":0.875,"dil2":1.025,"dil3":0.925,"dil4":1.075,"dil5":1.125,"dil6":0.975,"rots":[5,25,15,-5,-15,-25],"dils":[0.875,1.025,0.925,1.075,1.125,0.975],"loop_number":"NA","everTouched":null},{"id":"test","shape":"parallelogram","outlier_type":2,"choice":0,"outlierPosition":0,"success":true,"majorityOfMostRegularShapes":true,"rt":5125.89999999851,"rot1":25,"rot2":5,"rot3":-5,"rot4":-15,"rot5":-25,"rot6":15,"dil1":0.925,"dil2":0.975,"dil3":1.125,"dil4":1.075,"dil5":1.025,"dil6":0.875,"rots":[25,5,-5,-15,-25,15],"dils":[0.925,0.975,1.125,1.075,1.025,0.875],"loop_number":"NA","everTouched":null},{"id":"test","shape":"square","outlier_type":0,"choice":1,"outlierPosition":1,"success":true,"majorityOfMostRegularShapes":true,"rt":3985.699999999255,"rot1":-5,"rot2":-25,"rot3":5,"rot4":-15,"rot5":15,"rot6":25,"dil1":1.125,"dil2":1.025,"dil3":1.075,"dil4":0.875,"dil5":0.925,"dil6":0.975,"rots":[-5,-25,5,-15,15,25],"dils":[1.125,1.025,1.075,0.875,0.925,0.975],"loop_number":"NA","everTouched":null},{"id":"test","shape":"rustedHinge","outlier_type":2,"choice":1,"outlierPosition":1,"success":true,"majorityOfMostRegularShapes":true,"rt":6032.300000000745,"rot1":-5,"rot2":15,"rot3":-15,"rot4":5,"rot5":-25,"rot6":25,"dil1":0.875,"dil2":1.125,"dil3":1.025,"dil4":0.925,"dil5":1.075,"dil6":0.975,"rots":[-5,15,-15,5,-25,25],"dils":[0.875,1.125,1.025,0.925,1.075,0.975],"loop_number":"NA","everTouched":null},{"id":"test","shape":"random","outlier_type":3,"choice":5,"outlierPosition":5,"success":true,"majorityOfMostRegularShapes":true,"rt":5621.9000000003725,"rot1":-15,"rot2":-5,"rot3":5,"rot4":15,"rot5":-25,"rot6":25,"dil1":0.875,"dil2":1.075,"dil3":0.925,"dil4":1.125,"dil5":0.975,"dil6":1.025,"rots":[-15,-5,5,15,-25,25],"dils":[0.875,1.075,0.925,1.125,0.975,1.025],"loop_number":"NA","everTouched":null},{"id":"test","shape":"rectangle","outlier_type":2,"choice":4,"outlierPosition":4,"success":true,"majorityOfMostRegularShapes":true,"rt":5866.899999999441,"rot1":-25,"rot2":15,"rot3":25,"rot4":-5,"rot5":5,"rot6":-15,"dil1":1.125,"dil2":0.875,"dil3":1.075,"dil4":0.975,"dil5":1.025,"dil6":0.925,"rots":[-25,15,25,-5,5,-15],"dils":[1.125,0.875,1.075,0.975,1.025,0.925],"loop_number":"NA","everTouched":null},{"id":"test","shape":"square","outlier_type":3,"choice":1,"outlierPosition":1,"success":true,"majorityOfMostRegularShapes":true,"rt":2566.699999999255,"rot1":-25,"rot2":-15,"rot3":15,"rot4":-5,"rot5":5,"rot6":25,"dil1":0.925,"dil2":1.125,"dil3":1.025,"dil4":1.075,"dil5":0.875,"dil6":0.975,"rots":[-25,-15,15,-5,5,25],"dils":[0.925,1.125,1.025,1.075,0.875,0.975],"loop_number":"NA","everTouched":null},{"id":"test","shape":"rustedHinge","outlier_type":1,"choice":3,"outlierPosition":3,"success":true,"majorityOfMostRegularShapes":true,"rt":4760.5,"rot1":25,"rot2":-5,"rot3":-15,"rot4":15,"rot5":5,"rot6":-25,"dil1":1.125,"dil2":1.075,"dil3":0.975,"dil4":0.875,"dil5":0.925,"dil6":1.025,"rots":[25,-5,-15,15,5,-25],"dils":[1.125,1.075,0.975,0.875,0.925,1.025],"loop_number":"NA","everTouched":null},{"id":"test","shape":"rectangle","outlier_type":0,"choice":1,"outlierPosition":1,"success":true,"majorityOfMostRegularShapes":true,"rt":3063,"rot1":-15,"rot2":-25,"rot3":5,"rot4":15,"rot5":-5,"rot6":25,"dil1":1.125,"dil2":0.875,"dil3":1.025,"dil4":0.975,"dil5":1.075,"dil6":0.925,"rots":[-15,-25,5,15,-5,25],"dils":[1.125,0.875,1.025,0.975,1.075,0.925],"loop_number":"NA","everTouched":null},{"id":"test","shape":"square","outlier_type":1,"choice":3,"outlierPosition":3,"success":true,"majorityOfMostRegularShapes":true,"rt":2624,"rot1":-15,"rot2":-25,"rot3":5,"rot4":15,"rot5":25,"rot6":-5,"dil1":0.975,"dil2":0.925,"dil3":1.125,"dil4":1.025,"dil5":0.875,"dil6":1.075,"rots":[-15,-25,5,15,25,-5],"dils":[0.975,0.925,1.125,1.025,0.875,1.075],"loop_number":"NA","everTouched":null},{"id":"test","shape":"rightKite","outlier_type":3,"choice":5,"outlierPosition":1,"success":false,"majorityOfMostRegularShapes":true,"rt":8326.999999999069,"rot1":-25,"rot2":-5,"rot3":-15,"rot4":5,"rot5":25,"rot6":15,"dil1":1.075,"dil2":1.025,"dil3":0.975,"dil4":0.925,"dil5":0.875,"dil6":1.125,"rots":[-25,-5,-15,5,25,15],"dils":[1.075,1.025,0.975,0.925,0.875,1.125],"loop_number":"NA","everTouched":null},{"id":"test","shape":"parallelogram","outlier_type":1,"choice":4,"outlierPosition":4,"success":true,"majorityOfMostRegularShapes":true,"rt":3355.5,"rot1":25,"rot2":15,"rot3":-25,"rot4":5,"rot5":-15,"rot6":-5,"dil1":1.025,"dil2":0.875,"dil3":1.075,"dil4":0.925,"dil5":1.125,"dil6":0.975,"rots":[25,15,-25,5,-15,-5],"dils":[1.025,0.875,1.075,0.925,1.125,0.975],"loop_number":"NA","everTouched":null},{"id":"test","shape":"kite","outlier_type":2,"choice":1,"outlierPosition":1,"success":true,"majorityOfMostRegularShapes":true,"rt":1768.2999999998137,"rot1":-15,"rot2":15,"rot3":-5,"rot4":-25,"rot5":25,"rot6":5,"dil1":0.925,"dil2":0.875,"dil3":1.075,"dil4":0.975,"dil5":1.025,"dil6":1.125,"rots":[-15,15,-5,-25,25,5],"dils":[0.925,0.875,1.075,0.975,1.025,1.125],"loop_number":"NA","everTouched":null},{"id":"test","shape":"hinge","outlier_type":1,"choice":2,"outlierPosition":2,"success":true,"majorityOfMostRegularShapes":true,"rt":6779.200000001118,"rot1":5,"rot2":15,"rot3":25,"rot4":-15,"rot5":-25,"rot6":-5,"dil1":1.025,"dil2":1.075,"dil3":1.125,"dil4":0.975,"dil5":0.925,"dil6":0.875,"rots":[5,15,25,-15,-25,-5],"dils":[1.025,1.075,1.125,0.975,0.925,0.875],"loop_number":"NA","everTouched":null},{"id":"test","shape":"hinge","outlier_type":3,"choice":1,"outlierPosition":5,"success":false,"majorityOfMostRegularShapes":true,"rt":8994.899999999441,"rot1":-25,"rot2":-15,"rot3":15,"rot4":-5,"rot5":5,"rot6":25,"dil1":1.075,"dil2":0.975,"dil3":1.125,"dil4":0.875,"dil5":1.025,"dil6":0.925,"rots":[-25,-15,15,-5,5,25],"dils":[1.075,0.975,1.125,0.875,1.025,0.925],"loop_number":"NA","everTouched":null}],"desiredDistance":0.3,"trial_type":"oddball-grid","trial_index":3,"time_elapsed":515600077,"internal_node_id":"0.0-3.0","ID":"xmjzr5jz39"},{"success":true,"trial_type":"fullscreen","trial_index":4,"time_elapsed":515605858,"internal_node_id":"0.0-4.0","ID":"xmjzr5jz39"}]