[{"success":true,"trial_type":"fullscreen","trial_index":0,"time_elapsed":40143,"internal_node_id":"0.0-0.0","ID":"0u9ombxcqp"},{"results":[{"id":"train-images","shape":"3","outlier_type":"NA","choice":4,"outlierPosition":4,"success":true,"majorityOfMostRegularShapes":"NA","rt":8208.00000000008,"rot1":-15,"rot2":25,"rot3":5,"rot4":-5,"rot5":-25,"rot6":15,"dil1":0.875,"dil2":0.925,"dil3":1.075,"dil4":1.025,"dil5":1.125,"dil6":0.975,"rots":[-15,25,5,-5,-25,15],"dils":[0.875,0.925,1.075,1.025,1.125,0.975],"loop_number":1,"everTouched":null},{"id":"train-images","shape":"10","outlier_type":"NA","choice":1,"outlierPosition":1,"success":true,"majorityOfMostRegularShapes":"NA","rt":2325.900000000045,"rot1":-25,"rot2":-15,"rot3":5,"rot4":-5,"rot5":15,"rot6":25,"dil1":1.125,"dil2":0.875,"dil3":1.025,"dil4":1.075,"dil5":0.975,"dil6":0.925,"rots":[-25,-15,5,-5,15,25],"dils":[1.125,0.875,1.025,1.075,0.975,0.925],"loop_number":1,"everTouched":null},{"id":"train-images","shape":"8","outlier_type":"NA","choice":1,"outlierPosition":1,"success":true,"majorityOfMostRegularShapes":"NA","rt":1992.7000000000262,"rot1":25,"rot2":-15,"rot3":5,"rot4":15,"rot5":-25,"rot6":-5,"dil1":1.075,"dil2":0.975,"dil3":0.925,"dil4":1.025,"dil5":1.125,"dil6":0.875,"rots":[25,-15,5,15,-25,-5],"dils":[1.075,0.975,0.925,1.025,1.125,0.875],"loop_number":1,"everTouched":null},{"id":"train-images","shape":"2","outlier_type":"NA","choice":0,"outlierPosition":0,"success":true,"majorityOfMostRegularShapes":"NA","rt":1781.6000000000204,"rot1":-5,"rot2":-15,"rot3":5,"rot4":25,"rot5":-25,"rot6":15,"dil1":1.025,"dil2":1.125,"dil3":0.925,"dil4":0.975,"dil5":0.875,"dil6":1.075,"rots":[-5,-15,5,25,-25,15],"dils":[1.025,1.125,0.925,0.975,0.875,1.075],"loop_number":1,"everTouched":null},{"id":"train-images","shape":"1","outlier_type":"NA","choice":3,"outlierPosition":3,"success":true,"majorityOfMostRegularShapes":"NA","rt":1692.4000000001397,"rot1":-25,"rot2":-5,"rot3":5,"rot4":-15,"rot5":25,"rot6":15,"dil1":1.125,"dil2":0.875,"dil3":0.975,"dil4":0.925,"dil5":1.075,"dil6":1.025,"rots":[-25,-5,5,-15,25,15],"dils":[1.125,0.875,0.975,0.925,1.075,1.025],"loop_number":1,"everTouched":null},{"id":"train-images","shape":"7","outlier_type":"NA","choice":5,"outlierPosition":5,"success":true,"majorityOfMostRegularShapes":"NA","rt":1986.5000000002037,"rot1":-5,"rot2":5,"rot3":25,"rot4":15,"rot5":-25,"rot6":-15,"dil1":0.975,"dil2":0.875,"dil3":1.075,"dil4":0.925,"dil5":1.125,"dil6":1.025,"rots":[-5,5,25,15,-25,-15],"dils":[0.975,0.875,1.075,0.925,1.125,1.025],"loop_number":1,"everTouched":null},{"id":"train-images","shape":"9","outlier_type":"NA","choice":4,"outlierPosition":4,"success":true,"majorityOfMostRegularShapes":"NA","rt":1868.0999999999185,"rot1":25,"rot2":-25,"rot3":-15,"rot4":5,"rot5":15,"rot6":-5,"dil1":1.075,"dil2":0.875,"dil3":0.925,"dil4":1.125,"dil5":0.975,"dil6":1.025,"rots":[25,-25,-15,5,15,-5],"dils":[1.075,0.875,0.925,1.125,0.975,1.025],"loop_number":1,"everTouched":null},{"id":"train-images","shape":"4","outlier_type":"NA","choice":4,"outlierPosition":4,"success":true,"majorityOfMostRegularShapes":"NA","rt":1735.6999999999534,"rot1":5,"rot2":25,"rot3":-15,"rot4":-5,"rot5":-25,"rot6":15,"dil1":1.025,"dil2":0.925,"dil3":1.125,"dil4":0.975,"dil5":1.075,"dil6":0.875,"rots":[5,25,-15,-5,-25,15],"dils":[1.025,0.925,1.125,0.975,1.075,0.875],"loop_number":1,"everTouched":null},{"id":"train-images","shape":"6","outlier_type":"NA","choice":0,"outlierPosition":0,"success":true,"majorityOfMostRegularShapes":"NA","rt":1951.4999999998981,"rot1":25,"rot2":5,"rot3":-25,"rot4":-15,"rot5":15,"rot6":-5,"dil1":0.975,"dil2":1.025,"dil3":0.875,"dil4":0.925,"dil5":1.075,"dil6":1.125,"rots":[25,5,-25,-15,15,-5],"dils":[0.975,1.025,0.875,0.925,1.075,1.125],"loop_number":1,"everTouched":null},{"id":"train-images","shape":"5","outlier_type":"NA","choice":0,"outlierPosition":0,"success":true,"majorityOfMostRegularShapes":"NA","rt":1406.5000000000582,"rot1":25,"rot2":-15,"rot3":-25,"rot4":-5,"rot5":5,"rot6":15,"dil1":0.925,"dil2":0.975,"dil3":1.075,"dil4":1.025,"dil5":1.125,"dil6":0.875,"rots":[25,-15,-25,-5,5,15],"dils":[0.925,0.975,1.075,1.025,1.125,0.875],"loop_number":1,"everTouched":null}],"trial_type":"oddball-grid-image","trial_index":1,"time_elapsed":98980,"internal_node_id":"0.0-1.0","ID":"0u9ombxcqp"},{"results":[{"id":"train","shape":null,"outlier_type":null,"choice":0,"outlierPosition":0,"success":true,"majorityOfMostRegularShapes":null,"rt":1835.500000000131,"rot1":15,"rot2":-5,"rot3":5,"rot4":-25,"rot5":-15,"rot6":25,"dil1":1.125,"dil2":1.025,"dil3":0.975,"dil4":1.075,"dil5":0.875,"dil6":0.925,"rots":[15,-5,5,-25,-15,25],"dils":[1.125,1.025,0.975,1.075,0.875,0.925],"loop_number":1,"everTouched":null},{"id":"train","shape":null,"outlier_type":null,"choice":1,"outlierPosition":1,"success":true,"majorityOfMostRegularShapes":null,"rt":1740.5000000001164,"rot1":25,"rot2":-25,"rot3":-5,"rot4":15,"rot5":5,"rot6":-15,"dil1":0.925,"dil2":1.075,"dil3":1.025,"dil4":1.125,"dil5":0.975,"dil6":0.875,"rots":[25,-25,-5,15,5,-15],"dils":[0.925,1.075,1.025,1.125,0.975,0.875],"loop_number":1,"everTouched":null},{"id":"train","shape":null,"outlier_type":null,"choice":5,"outlierPosition":5,"success":true,"majorityOfMostRegularShapes":null,"rt":1624.399999999936,"rot1":25,"rot2":5,"rot3":-5,"rot4":-25,"rot5":-15,"rot6":15,"dil1":0.925,"dil2":1.025,"dil3":0.875,"dil4":1.075,"dil5":1.125,"dil6":0.975,"rots":[25,5,-5,-25,-15,15],"dils":[0.925,1.025,0.875,1.075,1.125,0.975],"loop_number":1,"everTouched":null},{"id":"train","shape":null,"outlier_type":null,"choice":1,"outlierPosition":1,"success":true,"majorityOfMostRegularShapes":null,"rt":1369.4000000000378,"rot1":25,"rot2":-5,"rot3":5,"rot4":15,"rot5":-25,"rot6":-15,"dil1":0.925,"dil2":0.975,"dil3":1.075,"dil4":1.125,"dil5":0.875,"dil6":1.025,"rots":[25,-5,5,15,-25,-15],"dils":[0.925,0.975,1.075,1.125,0.875,1.025],"loop_number":1,"everTouched":null},{"id":"train","shape":null,"outlier_type":null,"choice":5,"outlierPosition":5,"success":true,"majorityOfMostRegularShapes":null,"rt":3549.8999999999796,"rot1":-15,"rot2":5,"rot3":25,"rot4":-25,"rot5":-5,"rot6":15,"dil1":1.075,"dil2":1.125,"dil3":0.925,"dil4":0.875,"dil5":1.025,"dil6":0.975,"rots":[-15,5,25,-25,-5,15],"dils":[1.075,1.125,0.925,0.875,1.025,0.975],"loop_number":1,"everTouched":null},{"id":"train","shape":null,"outlier_type":null,"choice":4,"outlierPosition":4,"success":true,"majorityOfMostRegularShapes":null,"rt":2952.5999999998603,"rot1":25,"rot2":-5,"rot3":-15,"rot4":-25,"rot5":5,"rot6":15,"dil1":1.125,"dil2":0.925,"dil3":0.975,"dil4":0.875,"dil5":1.025,"dil6":1.075,"rots":[25,-5,-15,-25,5,15],"dils":[1.125,0.925,0.975,0.875,1.025,1.075],"loop_number":1,"everTouched":null}],"desiredDistance":0.3,"trial_type":"oddball-grid-easy","trial_index":2,"time_elapsed":124364,"internal_node_id":"0.0-2.0","ID":"0u9ombxcqp"},{"results":[{"id":"test","shape":"hinge","outlier_type":2,"choice":1,"outlierPosition":1,"success":true,"majorityOfMostRegularShapes":true,"rt":2054.399999999994,"rot1":-15,"rot2":25,"rot3":15,"rot4":-5,"rot5":-25,"rot6":5,"dil1":1.025,"dil2":0.875,"dil3":0.975,"dil4":1.075,"dil5":1.125,"dil6":0.925,"rots":[-15,25,15,-5,-25,5],"dils":[1.025,0.875,0.975,1.075,1.125,0.925],"loop_number":"NA","everTouched":null},{"id":"test","shape":"kite","outlier_type":1,"choice":4,"outlierPosition":4,"success":true,"majorityOfMostRegularShapes":true,"rt":5974.8000000001775,"rot1":25,"rot2":-5,"rot3":15,"rot4":-25,"rot5":-15,"rot6":5,"dil1":1.075,"dil2":1.025,"dil3":0.925,"dil4":1.125,"dil5":0.975,"dil6":0.875,"rots":[25,-5,15,-25,-15,5],"dils":[1.075,1.025,0.925,1.125,0.975,0.875],"loop_number":"NA","everTouched":null},{"id":"test","shape":"losange","outlier_type":0,"choice":3,"outlierPosition":4,"success":false,"majorityOfMostRegularShapes":true,"rt":6722.400000000111,"rot1":-15,"rot2":-5,"rot3":25,"rot4":15,"rot5":-25,"rot6":5,"dil1":1.125,"dil2":0.975,"dil3":1.075,"dil4":0.875,"dil5":0.925,"dil6":1.025,"rots":[-15,-5,25,15,-25,5],"dils":[1.125,0.975,1.075,0.875,0.925,1.025],"loop_number":"NA","everTouched":null},{"id":"test","shape":"rustedHinge","outlier_type":2,"choice":1,"outlierPosition":4,"success":false,"majorityOfMostRegularShapes":true,"rt":10179.999999999854,"rot1":-25,"rot2":25,"rot3":-15,"rot4":15,"rot5":5,"rot6":-5,"dil1":0.975,"dil2":0.875,"dil3":1.075,"dil4":1.025,"dil5":1.125,"dil6":0.925,"rots":[-25,25,-15,15,5,-5],"dils":[0.975,0.875,1.075,1.025,1.125,0.925],"loop_number":"NA","everTouched":null},{"id":"test","shape":"parallelogram","outlier_type":3,"choice":2,"outlierPosition":2,"success":true,"majorityOfMostRegularShapes":true,"rt":13736.20000000007,"rot1":-25,"rot2":-5,"rot3":25,"rot4":5,"rot5":-15,"rot6":15,"dil1":0.975,"dil2":1.025,"dil3":0.875,"dil4":0.925,"dil5":1.125,"dil6":1.075,"rots":[-25,-5,25,5,-15,15],"dils":[0.975,1.025,0.875,0.925,1.125,1.075],"loop_number":"NA","everTouched":null},{"id":"test","shape":"square","outlier_type":0,"choice":2,"outlierPosition":2,"success":true,"majorityOfMostRegularShapes":true,"rt":3470.000000000029,"rot1":25,"rot2":-5,"rot3":15,"rot4":-15,"rot5":5,"rot6":-25,"dil1":0.925,"dil2":0.875,"dil3":1.125,"dil4":1.075,"dil5":1.025,"dil6":0.975,"rots":[25,-5,15,-15,5,-25],"dils":[0.925,0.875,1.125,1.075,1.025,0.975],"loop_number":"NA","everTouched":null},{"id":"test","shape":"hinge","outlier_type":3,"choice":2,"outlierPosition":2,"success":true,"majorityOfMostRegularShapes":true,"rt":6471.399999999907,"rot1":-5,"rot2":5,"rot3":-25,"rot4":15,"rot5":25,"rot6":-15,"dil1":0.975,"dil2":1.075,"dil3":1.125,"dil4":0.875,"dil5":1.025,"dil6":0.925,"rots":[-5,5,-25,15,25,-15],"dils":[0.975,1.075,1.125,0.875,1.025,0.925],"loop_number":"NA","everTouched":null},{"id":"test","shape":"parallelogram","outlier_type":0,"choice":5,"outlierPosition":2,"success":false,"majorityOfMostRegularShapes":true,"rt":6033.400000000052,"rot1":5,"rot2":25,"rot3":-5,"rot4":-15,"rot5":15,"rot6":-25,"dil1":1.125,"dil2":1.075,"dil3":0.875,"dil4":0.975,"dil5":0.925,"dil6":1.025,"rots":[5,25,-5,-15,15,-25],"dils":[1.125,1.075,0.875,0.975,0.925,1.025],"loop_number":"NA","everTouched":null},{"id":"test","shape":"rightKite","outlier_type":2,"choice":4,"outlierPosition":4,"success":true,"majorityOfMostRegularShapes":true,"rt":2675.7999999999593,"rot1":25,"rot2":-5,"rot3":-25,"rot4":5,"rot5":-15,"rot6":15,"dil1":0.925,"dil2":1.075,"dil3":1.125,"dil4":0.975,"dil5":0.875,"dil6":1.025,"rots":[25,-5,-25,5,-15,15],"dils":[0.925,1.075,1.125,0.975,0.875,1.025],"loop_number":"NA","everTouched":null},{"id":"test","shape":"hinge","outlier_type":1,"choice":1,"outlierPosition":1,"success":true,"majorityOfMostRegularShapes":true,"rt":16141.800000000105,"rot1":-25,"rot2":25,"rot3":15,"rot4":-15,"rot5":5,"rot6":-5,"dil1":1.075,"dil2":1.125,"dil3":1.025,"dil4":0.925,"dil5":0.975,"dil6":0.875,"rots":[-25,25,15,-15,5,-5],"dils":[1.075,1.125,1.025,0.925,0.975,0.875],"loop_number":"NA","everTouched":null},{"id":"test","shape":"rectangle","outlier_type":0,"choice":4,"outlierPosition":4,"success":true,"majorityOfMostRegularShapes":true,"rt":9455.000000000146,"rot1":-25,"rot2":-5,"rot3":-15,"rot4":5,"rot5":15,"rot6":25,"dil1":1.125,"dil2":1.075,"dil3":0.975,"dil4":1.025,"dil5":0.875,"dil6":0.925,"rots":[-25,-5,-15,5,15,25],"dils":[1.125,1.075,0.975,1.025,0.875,0.925],"loop_number":"NA","everTouched":null},{"id":"test","shape":"square","outlier_type":1,"choice":2,"outlierPosition":2,"success":true,"majorityOfMostRegularShapes":true,"rt":1751.899999999965,"rot1":-25,"rot2":-5,"rot3":15,"rot4":25,"rot5":-15,"rot6":5,"dil1":0.875,"dil2":0.975,"dil3":1.075,"dil4":0.925,"dil5":1.125,"dil6":1.025,"rots":[-25,-5,15,25,-15,5],"dils":[0.875,0.975,1.075,0.925,1.125,1.025],"loop_number":"NA","everTouched":null},{"id":"test","shape":"random","outlier_type":2,"choice":0,"outlierPosition":1,"success":false,"majorityOfMostRegularShapes":true,"rt":2765.100000000064,"rot1":15,"rot2":5,"rot3":-25,"rot4":-5,"rot5":-15,"rot6":25,"dil1":0.875,"dil2":0.925,"dil3":0.975,"dil4":1.025,"dil5":1.125,"dil6":1.075,"rots":[15,5,-25,-5,-15,25],"dils":[0.875,0.925,0.975,1.025,1.125,1.075],"loop_number":"NA","everTouched":null},{"id":"test","shape":"rustedHinge","outlier_type":0,"choice":0,"outlierPosition":1,"success":false,"majorityOfMostRegularShapes":true,"rt":2742.899999999965,"rot1":25,"rot2":-25,"rot3":5,"rot4":15,"rot5":-5,"rot6":-15,"dil1":0.875,"dil2":0.925,"dil3":1.125,"dil4":0.975,"dil5":1.025,"dil6":1.075,"rots":[25,-25,5,15,-5,-15],"dils":[0.875,0.925,1.125,0.975,1.025,1.075],"loop_number":"NA","everTouched":null},{"id":"test","shape":"losange","outlier_type":3,"choice":0,"outlierPosition":0,"success":true,"majorityOfMostRegularShapes":true,"rt":15185.799999999988,"rot1":15,"rot2":-15,"rot3":-25,"rot4":25,"rot5":-5,"rot6":5,"dil1":1.125,"dil2":0.925,"dil3":0.975,"dil4":0.875,"dil5":1.025,"dil6":1.075,"rots":[15,-15,-25,25,-5,5],"dils":[1.125,0.925,0.975,0.875,1.025,1.075],"loop_number":"NA","everTouched":null},{"id":"test","shape":"parallelogram","outlier_type":2,"choice":1,"outlierPosition":1,"success":true,"majorityOfMostRegularShapes":true,"rt":9880.499999999942,"rot1":5,"rot2":25,"rot3":-5,"rot4":15,"rot5":-25,"rot6":-15,"dil1":1.075,"dil2":1.025,"dil3":0.925,"dil4":0.875,"dil5":0.975,"dil6":1.125,"rots":[5,25,-5,15,-25,-15],"dils":[1.075,1.025,0.925,0.875,0.975,1.125],"loop_number":"NA","everTouched":null},{"id":"test","shape":"rightKite","outlier_type":1,"choice":3,"outlierPosition":2,"success":false,"majorityOfMostRegularShapes":true,"rt":2437.9000000001397,"rot1":15,"rot2":-25,"rot3":-15,"rot4":25,"rot5":5,"rot6":-5,"dil1":1.075,"dil2":0.975,"dil3":1.025,"dil4":0.875,"dil5":0.925,"dil6":1.125,"rots":[15,-25,-15,25,5,-5],"dils":[1.075,0.975,1.025,0.875,0.925,1.125],"loop_number":"NA","everTouched":null},{"id":"test","shape":"square","outlier_type":3,"choice":1,"outlierPosition":1,"success":true,"majorityOfMostRegularShapes":true,"rt":4378.800000000163,"rot1":25,"rot2":15,"rot3":-5,"rot4":5,"rot5":-25,"rot6":-15,"dil1":1.125,"dil2":1.075,"dil3":1.025,"dil4":0.925,"dil5":0.975,"dil6":0.875,"rots":[25,15,-5,5,-25,-15],"dils":[1.125,1.075,1.025,0.925,0.975,0.875],"loop_number":"NA","everTouched":null},{"id":"test","shape":"random","outlier_type":0,"choice":2,"outlierPosition":2,"success":true,"majorityOfMostRegularShapes":true,"rt":5687.999999999884,"rot1":5,"rot2":-5,"rot3":25,"rot4":-25,"rot5":15,"rot6":-15,"dil1":0.875,"dil2":1.075,"dil3":1.125,"dil4":0.975,"dil5":1.025,"dil6":0.925,"rots":[5,-5,25,-25,15,-15],"dils":[0.875,1.075,1.125,0.975,1.025,0.925],"loop_number":"NA","everTouched":null},{"id":"test","shape":"isoTrapezoid","outlier_type":3,"choice":4,"outlierPosition":3,"success":false,"majorityOfMostRegularShapes":true,"rt":1605.9000000000233,"rot1":5,"rot2":15,"rot3":25,"rot4":-25,"rot5":-15,"rot6":-5,"dil1":1.025,"dil2":0.975,"dil3":0.925,"dil4":1.075,"dil5":0.875,"dil6":1.125,"rots":[5,15,25,-25,-15,-5],"dils":[1.025,0.975,0.925,1.075,0.875,1.125],"loop_number":"NA","everTouched":null},{"id":"test","shape":"kite","outlier_type":0,"choice":4,"outlierPosition":4,"success":true,"majorityOfMostRegularShapes":true,"rt":3760.7999999999884,"rot1":-15,"rot2":25,"rot3":-25,"rot4":-5,"rot5":15,"rot6":5,"dil1":1.075,"dil2":0.975,"dil3":0.925,"dil4":0.875,"dil5":1.125,"dil6":1.025,"rots":[-15,25,-25,-5,15,5],"dils":[1.075,0.975,0.925,0.875,1.125,1.025],"loop_number":"NA","everTouched":null},{"id":"test","shape":"isoTrapezoid","outlier_type":1,"choice":5,"outlierPosition":5,"success":true,"majorityOfMostRegularShapes":true,"rt":3845.5000000001164,"rot1":5,"rot2":15,"rot3":-15,"rot4":25,"rot5":-5,"rot6":-25,"dil1":1.125,"dil2":0.975,"dil3":0.875,"dil4":1.075,"dil5":1.025,"dil6":0.925,"rots":[5,15,-15,25,-5,-25],"dils":[1.125,0.975,0.875,1.075,1.025,0.925],"loop_number":"NA","everTouched":null},{"id":"test","shape":"kite","outlier_type":3,"choice":0,"outlierPosition":1,"success":false,"majorityOfMostRegularShapes":true,"rt":3526.2999999999884,"rot1":-25,"rot2":25,"rot3":5,"rot4":15,"rot5":-5,"rot6":-15,"dil1":0.875,"dil2":1.025,"dil3":0.975,"dil4":1.125,"dil5":0.925,"dil6":1.075,"rots":[-25,25,5,15,-5,-15],"dils":[0.875,1.025,0.975,1.125,0.925,1.075],"loop_number":"NA","everTouched":null},{"id":"test","shape":"trapezoid","outlier_type":1,"choice":1,"outlierPosition":0,"success":false,"majorityOfMostRegularShapes":true,"rt":5377.4000000000815,"rot1":25,"rot2":-15,"rot3":-5,"rot4":5,"rot5":-25,"rot6":15,"dil1":1.075,"dil2":1.125,"dil3":0.975,"dil4":0.875,"dil5":1.025,"dil6":0.925,"rots":[25,-15,-5,5,-25,15],"dils":[1.075,1.125,0.975,0.875,1.025,0.925],"loop_number":"NA","everTouched":null},{"id":"test","shape":"rightKite","outlier_type":0,"choice":1,"outlierPosition":0,"success":false,"majorityOfMostRegularShapes":true,"rt":17676.40000000008,"rot1":15,"rot2":-15,"rot3":5,"rot4":-25,"rot5":25,"rot6":-5,"dil1":0.925,"dil2":0.875,"dil3":1.075,"dil4":1.025,"dil5":1.125,"dil6":0.975,"rots":[15,-15,5,-25,25,-5],"dils":[0.925,0.875,1.075,1.025,1.125,0.975],"loop_number":"NA","everTouched":null},{"id":"test","shape":"parallelogram","outlier_type":1,"choice":5,"outlierPosition":5,"success":true,"majorityOfMostRegularShapes":true,"rt":2222.0999999999767,"rot1":15,"rot2":-5,"rot3":25,"rot4":-15,"rot5":-25,"rot6":5,"dil1":0.925,"dil2":1.075,"dil3":1.025,"dil4":0.975,"dil5":1.125,"dil6":0.875,"rots":[15,-5,25,-15,-25,5],"dils":[0.925,1.075,1.025,0.975,1.125,0.875],"loop_number":"NA","everTouched":null},{"id":"test","shape":"rectangle","outlier_type":3,"choice":3,"outlierPosition":5,"success":false,"majorityOfMostRegularShapes":true,"rt":2270.600000000093,"rot1":-5,"rot2":5,"rot3":-25,"rot4":-15,"rot5":15,"rot6":25,"dil1":0.975,"dil2":1.075,"dil3":1.025,"dil4":0.875,"dil5":1.125,"dil6":0.925,"rots":[-5,5,-25,-15,15,25],"dils":[0.975,1.075,1.025,0.875,1.125,0.925],"loop_number":"NA","everTouched":null},{"id":"test","shape":"rustedHinge","outlier_type":1,"choice":5,"outlierPosition":0,"success":false,"majorityOfMostRegularShapes":true,"rt":12372.000000000058,"rot1":-25,"rot2":5,"rot3":15,"rot4":-15,"rot5":25,"rot6":-5,"dil1":1.125,"dil2":1.025,"dil3":1.075,"dil4":0.975,"dil5":0.925,"dil6":0.875,"rots":[-25,5,15,-15,25,-5],"dils":[1.125,1.025,1.075,0.975,0.925,0.875],"loop_number":"NA","everTouched":null},{"id":"test","shape":"rectangle","outlier_type":2,"choice":1,"outlierPosition":1,"success":true,"majorityOfMostRegularShapes":true,"rt":1892.9000000000815,"rot1":-25,"rot2":-15,"rot3":-5,"rot4":5,"rot5":25,"rot6":15,"dil1":1.025,"dil2":0.875,"dil3":0.975,"dil4":0.925,"dil5":1.125,"dil6":1.075,"rots":[-25,-15,-5,5,25,15],"dils":[1.025,0.875,0.975,0.925,1.125,1.075],"loop_number":"NA","everTouched":null},{"id":"test","shape":"trapezoid","outlier_type":3,"choice":0,"outlierPosition":2,"success":false,"majorityOfMostRegularShapes":true,"rt":7395,"rot1":-25,"rot2":-15,"rot3":-5,"rot4":25,"rot5":15,"rot6":5,"dil1":0.875,"dil2":1.025,"dil3":0.925,"dil4":1.075,"dil5":0.975,"dil6":1.125,"rots":[-25,-15,-5,25,15,5],"dils":[0.875,1.025,0.925,1.075,0.975,1.125],"loop_number":"NA","everTouched":null},{"id":"test","shape":"random","outlier_type":1,"choice":4,"outlierPosition":0,"success":false,"majorityOfMostRegularShapes":true,"rt":11637.20000000007,"rot1":-25,"rot2":-5,"rot3":-15,"rot4":15,"rot5":5,"rot6":25,"dil1":1.025,"dil2":1.125,"dil3":1.075,"dil4":0.925,"dil5":0.875,"dil6":0.975,"rots":[-25,-5,-15,15,5,25],"dils":[1.025,1.125,1.075,0.925,0.875,0.975],"loop_number":"NA","everTouched":null},{"id":"test","shape":"isoTrapezoid","outlier_type":0,"choice":3,"outlierPosition":4,"success":false,"majorityOfMostRegularShapes":true,"rt":3592.8999999998487,"rot1":5,"rot2":25,"rot3":-15,"rot4":-5,"rot5":-25,"rot6":15,"dil1":1.075,"dil2":1.025,"dil3":0.925,"dil4":0.875,"dil5":0.975,"dil6":1.125,"rots":[5,25,-15,-5,-25,15],"dils":[1.075,1.025,0.925,0.875,0.975,1.125],"loop_number":"NA","everTouched":null},{"id":"test","shape":"trapezoid","outlier_type":2,"choice":3,"outlierPosition":3,"success":true,"majorityOfMostRegularShapes":true,"rt":5938.400000000023,"rot1":-25,"rot2":25,"rot3":-15,"rot4":15,"rot5":5,"rot6":-5,"dil1":1.075,"dil2":1.025,"dil3":0.975,"dil4":0.925,"dil5":0.875,"dil6":1.125,"rots":[-25,25,-15,15,5,-5],"dils":[1.075,1.025,0.975,0.925,0.875,1.125],"loop_number":"NA","everTouched":null},{"id":"test","shape":"losange","outlier_type":1,"choice":1,"outlierPosition":5,"success":false,"majorityOfMostRegularShapes":true,"rt":3073.4000000000233,"rot1":15,"rot2":-5,"rot3":5,"rot4":-25,"rot5":-15,"rot6":25,"dil1":1.025,"dil2":1.125,"dil3":0.875,"dil4":0.975,"dil5":0.925,"dil6":1.075,"rots":[15,-5,5,-25,-15,25],"dils":[1.025,1.125,0.875,0.975,0.925,1.075],"loop_number":"NA","everTouched":null},{"id":"test","shape":"kite","outlier_type":2,"choice":4,"outlierPosition":4,"success":true,"majorityOfMostRegularShapes":true,"rt":2913.5999999998603,"rot1":-15,"rot2":5,"rot3":-5,"rot4":15,"rot5":25,"rot6":-25,"dil1":0.875,"dil2":1.125,"dil3":0.925,"dil4":0.975,"dil5":1.025,"dil6":1.075,"rots":[-15,5,-5,15,25,-25],"dils":[0.875,1.125,0.925,0.975,1.025,1.075],"loop_number":"NA","everTouched":null},{"id":"test","shape":"rustedHinge","outlier_type":3,"choice":2,"outlierPosition":2,"success":true,"majorityOfMostRegularShapes":true,"rt":3024.5,"rot1":-5,"rot2":15,"rot3":-15,"rot4":5,"rot5":25,"rot6":-25,"dil1":1.075,"dil2":0.875,"dil3":1.025,"dil4":1.125,"dil5":0.925,"dil6":0.975,"rots":[-5,15,-15,5,25,-25],"dils":[1.075,0.875,1.025,1.125,0.925,0.975],"loop_number":"NA","everTouched":null},{"id":"test","shape":"isoTrapezoid","outlier_type":2,"choice":3,"outlierPosition":4,"success":false,"majorityOfMostRegularShapes":true,"rt":1932.699999999837,"rot1":-5,"rot2":-25,"rot3":-15,"rot4":25,"rot5":5,"rot6":15,"dil1":1.025,"dil2":0.975,"dil3":0.925,"dil4":0.875,"dil5":1.075,"dil6":1.125,"rots":[-5,-25,-15,25,5,15],"dils":[1.025,0.975,0.925,0.875,1.075,1.125],"loop_number":"NA","everTouched":null},{"id":"test","shape":"trapezoid","outlier_type":0,"choice":4,"outlierPosition":5,"success":false,"majorityOfMostRegularShapes":true,"rt":1595.7000000000698,"rot1":-15,"rot2":15,"rot3":-25,"rot4":25,"rot5":5,"rot6":-5,"dil1":0.875,"dil2":1.125,"dil3":0.925,"dil4":1.025,"dil5":0.975,"dil6":1.075,"rots":[-15,15,-25,25,5,-5],"dils":[0.875,1.125,0.925,1.025,0.975,1.075],"loop_number":"NA","everTouched":null},{"id":"test","shape":"rectangle","outlier_type":1,"choice":4,"outlierPosition":4,"success":true,"majorityOfMostRegularShapes":true,"rt":3623.2000000000116,"rot1":25,"rot2":15,"rot3":-5,"rot4":-25,"rot5":5,"rot6":-15,"dil1":1.125,"dil2":0.925,"dil3":0.875,"dil4":1.075,"dil5":1.025,"dil6":0.975,"rots":[25,15,-5,-25,5,-15],"dils":[1.125,0.925,0.875,1.075,1.025,0.975],"loop_number":"NA","everTouched":null},{"id":"test","shape":"losange","outlier_type":2,"choice":5,"outlierPosition":5,"success":true,"majorityOfMostRegularShapes":true,"rt":1918.800000000163,"rot1":15,"rot2":-25,"rot3":-15,"rot4":-5,"rot5":25,"rot6":5,"dil1":1.075,"dil2":1.125,"dil3":0.975,"dil4":0.925,"dil5":1.025,"dil6":0.875,"rots":[15,-25,-15,-5,25,5],"dils":[1.075,1.125,0.975,0.925,1.025,0.875],"loop_number":"NA","everTouched":null},{"id":"test","shape":"rightKite","outlier_type":3,"choice":1,"outlierPosition":1,"success":true,"majorityOfMostRegularShapes":true,"rt":3902.5000000001746,"rot1":-25,"rot2":5,"rot3":-15,"rot4":-5,"rot5":25,"rot6":15,"dil1":0.925,"dil2":1.075,"dil3":1.025,"dil4":1.125,"dil5":0.975,"dil6":0.875,"rots":[-25,5,-15,-5,25,15],"dils":[0.925,1.075,1.025,1.125,0.975,0.875],"loop_number":"NA","everTouched":null},{"id":"test","shape":"square","outlier_type":2,"choice":1,"outlierPosition":0,"success":false,"majorityOfMostRegularShapes":true,"rt":2229.100000000035,"rot1":5,"rot2":-15,"rot3":15,"rot4":-25,"rot5":-5,"rot6":25,"dil1":0.925,"dil2":0.875,"dil3":1.125,"dil4":0.975,"dil5":1.075,"dil6":1.025,"rots":[5,-15,15,-25,-5,25],"dils":[0.925,0.875,1.125,0.975,1.075,1.025],"loop_number":"NA","everTouched":null},{"id":"test","shape":"random","outlier_type":3,"choice":1,"outlierPosition":1,"success":true,"majorityOfMostRegularShapes":true,"rt":4319.799999999988,"rot1":-5,"rot2":25,"rot3":15,"rot4":-15,"rot5":5,"rot6":-25,"dil1":0.875,"dil2":1.125,"dil3":1.025,"dil4":0.975,"dil5":1.075,"dil6":0.925,"rots":[-5,25,15,-15,5,-25],"dils":[0.875,1.125,1.025,0.975,1.075,0.925],"loop_number":"NA","everTouched":null},{"id":"test","shape":"hinge","outlier_type":0,"choice":3,"outlierPosition":2,"success":false,"majorityOfMostRegularShapes":true,"rt":1623.4999999998836,"rot1":5,"rot2":-5,"rot3":-15,"rot4":25,"rot5":-25,"rot6":15,"dil1":0.925,"dil2":0.975,"dil3":1.125,"dil4":0.875,"dil5":1.075,"dil6":1.025,"rots":[5,-5,-15,25,-25,15],"dils":[0.925,0.975,1.125,0.875,1.075,1.025],"loop_number":"NA","everTouched":null}],"desiredDistance":0.3,"trial_type":"oddball-grid","trial_index":3,"time_elapsed":447921,"internal_node_id":"0.0-3.0","ID":"0u9ombxcqp"},{"success":true,"trial_type":"fullscreen","trial_index":4,"time_elapsed":456297,"internal_node_id":"0.0-4.0","ID":"0u9ombxcqp"}]