[{"success":true,"trial_type":"fullscreen","trial_index":0,"time_elapsed":20688,"internal_node_id":"0.0-0.0","ID":"06g05bg8n7"},{"results":[{"id":"train-images","shape":"6","outlier_type":"NA","choice":2,"outlierPosition":2,"success":true,"majorityOfMostRegularShapes":"NA","rt":17817.000000000007,"rot1":5,"rot2":25,"rot3":-5,"rot4":15,"rot5":-25,"rot6":-15,"dil1":0.875,"dil2":0.925,"dil3":1.075,"dil4":0.975,"dil5":1.025,"dil6":1.125,"rots":[5,25,-5,15,-25,-15],"dils":[0.875,0.925,1.075,0.975,1.025,1.125],"loop_number":1,"everTouched":null},{"id":"train-images","shape":"4","outlier_type":"NA","choice":3,"outlierPosition":3,"success":true,"majorityOfMostRegularShapes":"NA","rt":3481.6000000000713,"rot1":-25,"rot2":25,"rot3":-15,"rot4":-5,"rot5":5,"rot6":15,"dil1":1.075,"dil2":0.975,"dil3":1.125,"dil4":0.925,"dil5":1.025,"dil6":0.875,"rots":[-25,25,-15,-5,5,15],"dils":[1.075,0.975,1.125,0.925,1.025,0.875],"loop_number":1,"everTouched":null},{"id":"train-images","shape":"7","outlier_type":"NA","choice":3,"outlierPosition":1,"success":false,"majorityOfMostRegularShapes":"NA","rt":13384.799999999814,"rot1":-5,"rot2":15,"rot3":5,"rot4":25,"rot5":-25,"rot6":-15,"dil1":0.975,"dil2":0.925,"dil3":1.125,"dil4":1.075,"dil5":1.025,"dil6":0.875,"rots":[-5,15,5,25,-25,-15],"dils":[0.975,0.925,1.125,1.075,1.025,0.875],"loop_number":1,"everTouched":null},{"id":"train-images","shape":"9","outlier_type":"NA","choice":3,"outlierPosition":3,"success":true,"majorityOfMostRegularShapes":"NA","rt":10801.199999999866,"rot1":-25,"rot2":-15,"rot3":25,"rot4":-5,"rot5":15,"rot6":5,"dil1":0.875,"dil2":1.025,"dil3":0.975,"dil4":1.075,"dil5":0.925,"dil6":1.125,"rots":[-25,-15,25,-5,15,5],"dils":[0.875,1.025,0.975,1.075,0.925,1.125],"loop_number":1,"everTouched":null},{"id":"train-images","shape":"1","outlier_type":"NA","choice":0,"outlierPosition":0,"success":true,"majorityOfMostRegularShapes":"NA","rt":2481.4999999998836,"rot1":15,"rot2":-15,"rot3":-25,"rot4":5,"rot5":25,"rot6":-5,"dil1":0.925,"dil2":0.975,"dil3":0.875,"dil4":1.125,"dil5":1.075,"dil6":1.025,"rots":[15,-15,-25,5,25,-5],"dils":[0.925,0.975,0.875,1.125,1.075,1.025],"loop_number":1,"everTouched":null},{"id":"train-images","shape":"2","outlier_type":"NA","choice":3,"outlierPosition":3,"success":true,"majorityOfMostRegularShapes":"NA","rt":1751.6000000005151,"rot1":-5,"rot2":-25,"rot3":15,"rot4":5,"rot5":-15,"rot6":25,"dil1":1.125,"dil2":1.025,"dil3":0.975,"dil4":0.875,"dil5":1.075,"dil6":0.925,"rots":[-5,-25,15,5,-15,25],"dils":[1.125,1.025,0.975,0.875,1.075,0.925],"loop_number":1,"everTouched":null},{"id":"train-images","shape":"8","outlier_type":"NA","choice":2,"outlierPosition":2,"success":true,"majorityOfMostRegularShapes":"NA","rt":3178.6000000001804,"rot1":25,"rot2":15,"rot3":5,"rot4":-15,"rot5":-25,"rot6":-5,"dil1":0.925,"dil2":0.875,"dil3":1.075,"dil4":0.975,"dil5":1.025,"dil6":1.125,"rots":[25,15,5,-15,-25,-5],"dils":[0.925,0.875,1.075,0.975,1.025,1.125],"loop_number":1,"everTouched":null},{"id":"train-images","shape":"3","outlier_type":"NA","choice":2,"outlierPosition":2,"success":true,"majorityOfMostRegularShapes":"NA","rt":2797.3000000001775,"rot1":-25,"rot2":-15,"rot3":5,"rot4":15,"rot5":-5,"rot6":25,"dil1":1.075,"dil2":0.875,"dil3":0.975,"dil4":1.125,"dil5":0.925,"dil6":1.025,"rots":[-25,-15,5,15,-5,25],"dils":[1.075,0.875,0.975,1.125,0.925,1.025],"loop_number":1,"everTouched":null},{"id":"train-images","shape":"5","outlier_type":"NA","choice":3,"outlierPosition":3,"success":true,"majorityOfMostRegularShapes":"NA","rt":2452.0000000002183,"rot1":-25,"rot2":25,"rot3":15,"rot4":5,"rot5":-15,"rot6":-5,"dil1":1.075,"dil2":0.925,"dil3":1.125,"dil4":0.875,"dil5":1.025,"dil6":0.975,"rots":[-25,25,15,5,-15,-5],"dils":[1.075,0.925,1.125,0.875,1.025,0.975],"loop_number":1,"everTouched":null},{"id":"train-images","shape":"10","outlier_type":"NA","choice":5,"outlierPosition":5,"success":true,"majorityOfMostRegularShapes":"NA","rt":1887.1999999992113,"rot1":-15,"rot2":15,"rot3":-25,"rot4":5,"rot5":-5,"rot6":25,"dil1":1.025,"dil2":0.975,"dil3":1.075,"dil4":0.875,"dil5":1.125,"dil6":0.925,"rots":[-15,15,-25,5,-5,25],"dils":[1.025,0.975,1.075,0.875,1.125,0.925],"loop_number":1,"everTouched":null}],"trial_type":"oddball-grid-image","trial_index":1,"time_elapsed":122774,"internal_node_id":"0.0-1.0","ID":"06g05bg8n7"},{"results":[{"id":"train","shape":null,"outlier_type":null,"choice":2,"outlierPosition":2,"success":true,"majorityOfMostRegularShapes":null,"rt":2141.9999999998254,"rot1":-25,"rot2":5,"rot3":-5,"rot4":25,"rot5":-15,"rot6":15,"dil1":0.925,"dil2":1.075,"dil3":0.875,"dil4":0.975,"dil5":1.025,"dil6":1.125,"rots":[-25,5,-5,25,-15,15],"dils":[0.925,1.075,0.875,0.975,1.025,1.125],"loop_number":1,"everTouched":null},{"id":"train","shape":null,"outlier_type":null,"choice":1,"outlierPosition":1,"success":true,"majorityOfMostRegularShapes":null,"rt":2750.3999999998778,"rot1":-25,"rot2":15,"rot3":5,"rot4":-5,"rot5":25,"rot6":-15,"dil1":1.075,"dil2":0.975,"dil3":1.125,"dil4":1.025,"dil5":0.925,"dil6":0.875,"rots":[-25,15,5,-5,25,-15],"dils":[1.075,0.975,1.125,1.025,0.925,0.875],"loop_number":1,"everTouched":null},{"id":"train","shape":null,"outlier_type":null,"choice":3,"outlierPosition":3,"success":true,"majorityOfMostRegularShapes":null,"rt":5311.899999999703,"rot1":-25,"rot2":-5,"rot3":-15,"rot4":25,"rot5":15,"rot6":5,"dil1":1.075,"dil2":1.025,"dil3":1.125,"dil4":0.925,"dil5":0.975,"dil6":0.875,"rots":[-25,-5,-15,25,15,5],"dils":[1.075,1.025,1.125,0.925,0.975,0.875],"loop_number":1,"everTouched":null},{"id":"train","shape":null,"outlier_type":null,"choice":2,"outlierPosition":2,"success":true,"majorityOfMostRegularShapes":null,"rt":1654.7000000000698,"rot1":15,"rot2":-5,"rot3":-25,"rot4":5,"rot5":25,"rot6":-15,"dil1":1.025,"dil2":1.075,"dil3":0.975,"dil4":0.925,"dil5":1.125,"dil6":0.875,"rots":[15,-5,-25,5,25,-15],"dils":[1.025,1.075,0.975,0.925,1.125,0.875],"loop_number":1,"everTouched":null},{"id":"train","shape":null,"outlier_type":null,"choice":2,"outlierPosition":2,"success":true,"majorityOfMostRegularShapes":null,"rt":1779.1999999999534,"rot1":-5,"rot2":-25,"rot3":15,"rot4":25,"rot5":-15,"rot6":5,"dil1":1.125,"dil2":0.975,"dil3":1.025,"dil4":0.925,"dil5":0.875,"dil6":1.075,"rots":[-5,-25,15,25,-15,5],"dils":[1.125,0.975,1.025,0.925,0.875,1.075],"loop_number":1,"everTouched":null},{"id":"train","shape":null,"outlier_type":null,"choice":5,"outlierPosition":5,"success":true,"majorityOfMostRegularShapes":null,"rt":5600.899999999441,"rot1":25,"rot2":-5,"rot3":-25,"rot4":5,"rot5":-15,"rot6":15,"dil1":1.025,"dil2":1.125,"dil3":0.875,"dil4":1.075,"dil5":0.975,"dil6":0.925,"rots":[25,-5,-25,5,-15,15],"dils":[1.025,1.125,0.875,1.075,0.975,0.925],"loop_number":1,"everTouched":null}],"desiredDistance":0.3,"trial_type":"oddball-grid-easy","trial_index":2,"time_elapsed":158332,"internal_node_id":"0.0-2.0","ID":"06g05bg8n7"},{"results":[{"id":"test","shape":"hinge","outlier_type":1,"choice":0,"outlierPosition":0,"success":true,"majorityOfMostRegularShapes":true,"rt":4284.599999999977,"rot1":-15,"rot2":-5,"rot3":15,"rot4":-25,"rot5":5,"rot6":25,"dil1":0.875,"dil2":1.075,"dil3":1.025,"dil4":0.925,"dil5":1.125,"dil6":0.975,"rots":[-15,-5,15,-25,5,25],"dils":[0.875,1.075,1.025,0.925,1.125,0.975],"loop_number":"NA","everTouched":null},{"id":"test","shape":"random","outlier_type":0,"choice":5,"outlierPosition":1,"success":false,"majorityOfMostRegularShapes":true,"rt":5104.699999999866,"rot1":5,"rot2":15,"rot3":-25,"rot4":-15,"rot5":25,"rot6":-5,"dil1":0.875,"dil2":0.975,"dil3":1.125,"dil4":0.925,"dil5":1.075,"dil6":1.025,"rots":[5,15,-25,-15,25,-5],"dils":[0.875,0.975,1.125,0.925,1.075,1.025],"loop_number":"NA","everTouched":null},{"id":"test","shape":"trapezoid","outlier_type":2,"choice":1,"outlierPosition":5,"success":false,"majorityOfMostRegularShapes":true,"rt":2320.899999999703,"rot1":25,"rot2":-15,"rot3":5,"rot4":-5,"rot5":-25,"rot6":15,"dil1":1.075,"dil2":1.125,"dil3":0.875,"dil4":0.975,"dil5":0.925,"dil6":1.025,"rots":[25,-15,5,-5,-25,15],"dils":[1.075,1.125,0.875,0.975,0.925,1.025],"loop_number":"NA","everTouched":null},{"id":"test","shape":"parallelogram","outlier_type":1,"choice":4,"outlierPosition":0,"success":false,"majorityOfMostRegularShapes":true,"rt":6214.899999999936,"rot1":15,"rot2":25,"rot3":5,"rot4":-5,"rot5":-15,"rot6":-25,"dil1":0.925,"dil2":0.975,"dil3":1.075,"dil4":1.125,"dil5":0.875,"dil6":1.025,"rots":[15,25,5,-5,-15,-25],"dils":[0.925,0.975,1.075,1.125,0.875,1.025],"loop_number":"NA","everTouched":null},{"id":"test","shape":"kite","outlier_type":0,"choice":1,"outlierPosition":2,"success":false,"majorityOfMostRegularShapes":true,"rt":3819.7000000000116,"rot1":5,"rot2":-25,"rot3":-15,"rot4":15,"rot5":-5,"rot6":25,"dil1":0.875,"dil2":0.975,"dil3":1.125,"dil4":1.025,"dil5":0.925,"dil6":1.075,"rots":[5,-25,-15,15,-5,25],"dils":[0.875,0.975,1.125,1.025,0.925,1.075],"loop_number":"NA","everTouched":null},{"id":"test","shape":"rustedHinge","outlier_type":1,"choice":0,"outlierPosition":0,"success":true,"majorityOfMostRegularShapes":true,"rt":4398.69999999975,"rot1":15,"rot2":-15,"rot3":-5,"rot4":25,"rot5":-25,"rot6":5,"dil1":0.875,"dil2":1.125,"dil3":1.075,"dil4":1.025,"dil5":0.925,"dil6":0.975,"rots":[15,-15,-5,25,-25,5],"dils":[0.875,1.125,1.075,1.025,0.925,0.975],"loop_number":"NA","everTouched":null},{"id":"test","shape":"trapezoid","outlier_type":1,"choice":1,"outlierPosition":1,"success":true,"majorityOfMostRegularShapes":true,"rt":3026.499999999942,"rot1":-25,"rot2":25,"rot3":-5,"rot4":5,"rot5":-15,"rot6":15,"dil1":1.075,"dil2":1.125,"dil3":0.925,"dil4":1.025,"dil5":0.875,"dil6":0.975,"rots":[-25,25,-5,5,-15,15],"dils":[1.075,1.125,0.925,1.025,0.875,0.975],"loop_number":"NA","everTouched":null},{"id":"test","shape":"parallelogram","outlier_type":3,"choice":5,"outlierPosition":5,"success":true,"majorityOfMostRegularShapes":true,"rt":3101.9000000005763,"rot1":15,"rot2":-5,"rot3":5,"rot4":-15,"rot5":-25,"rot6":25,"dil1":0.975,"dil2":1.125,"dil3":1.025,"dil4":1.075,"dil5":0.875,"dil6":0.925,"rots":[15,-5,5,-15,-25,25],"dils":[0.975,1.125,1.025,1.075,0.875,0.925],"loop_number":"NA","everTouched":null},{"id":"test","shape":"random","outlier_type":1,"choice":1,"outlierPosition":1,"success":true,"majorityOfMostRegularShapes":true,"rt":4961.099999999511,"rot1":-5,"rot2":5,"rot3":15,"rot4":-15,"rot5":25,"rot6":-25,"dil1":1.025,"dil2":1.125,"dil3":0.925,"dil4":0.875,"dil5":1.075,"dil6":0.975,"rots":[-5,5,15,-15,25,-25],"dils":[1.025,1.125,0.925,0.875,1.075,0.975],"loop_number":"NA","everTouched":null},{"id":"test","shape":"square","outlier_type":0,"choice":5,"outlierPosition":5,"success":true,"majorityOfMostRegularShapes":true,"rt":3605.300000000163,"rot1":-25,"rot2":5,"rot3":25,"rot4":-15,"rot5":-5,"rot6":15,"dil1":1.125,"dil2":0.875,"dil3":1.025,"dil4":0.925,"dil5":1.075,"dil6":0.975,"rots":[-25,5,25,-15,-5,15],"dils":[1.125,0.875,1.025,0.925,1.075,0.975],"loop_number":"NA","everTouched":null},{"id":"test","shape":"rectangle","outlier_type":1,"choice":3,"outlierPosition":3,"success":true,"majorityOfMostRegularShapes":true,"rt":2922.4000000003725,"rot1":15,"rot2":-5,"rot3":-15,"rot4":-25,"rot5":5,"rot6":25,"dil1":1.075,"dil2":1.025,"dil3":0.975,"dil4":0.925,"dil5":0.875,"dil6":1.125,"rots":[15,-5,-15,-25,5,25],"dils":[1.075,1.025,0.975,0.925,0.875,1.125],"loop_number":"NA","everTouched":null},{"id":"test","shape":"rustedHinge","outlier_type":0,"choice":3,"outlierPosition":1,"success":false,"majorityOfMostRegularShapes":true,"rt":2721.500000000582,"rot1":15,"rot2":-25,"rot3":25,"rot4":5,"rot5":-5,"rot6":-15,"dil1":1.075,"dil2":0.975,"dil3":1.125,"dil4":0.875,"dil5":1.025,"dil6":0.925,"rots":[15,-25,25,5,-5,-15],"dils":[1.075,0.975,1.125,0.875,1.025,0.925],"loop_number":"NA","everTouched":null},{"id":"test","shape":"isoTrapezoid","outlier_type":2,"choice":2,"outlierPosition":2,"success":true,"majorityOfMostRegularShapes":true,"rt":5769.5999999996275,"rot1":15,"rot2":5,"rot3":-15,"rot4":-5,"rot5":-25,"rot6":25,"dil1":1.075,"dil2":1.125,"dil3":1.025,"dil4":0.925,"dil5":0.875,"dil6":0.975,"rots":[15,5,-15,-5,-25,25],"dils":[1.075,1.125,1.025,0.925,0.875,0.975],"loop_number":"NA","everTouched":null},{"id":"test","shape":"rustedHinge","outlier_type":3,"choice":0,"outlierPosition":0,"success":true,"majorityOfMostRegularShapes":true,"rt":2363.900000000285,"rot1":25,"rot2":15,"rot3":-15,"rot4":-5,"rot5":-25,"rot6":5,"dil1":1.025,"dil2":1.075,"dil3":0.925,"dil4":0.875,"dil5":0.975,"dil6":1.125,"rots":[25,15,-15,-5,-25,5],"dils":[1.025,1.075,0.925,0.875,0.975,1.125],"loop_number":"NA","everTouched":null},{"id":"test","shape":"losange","outlier_type":1,"choice":2,"outlierPosition":5,"success":false,"majorityOfMostRegularShapes":true,"rt":2382.9999999998254,"rot1":-15,"rot2":5,"rot3":-5,"rot4":-25,"rot5":15,"rot6":25,"dil1":1.125,"dil2":1.075,"dil3":0.875,"dil4":0.975,"dil5":1.025,"dil6":0.925,"rots":[-15,5,-5,-25,15,25],"dils":[1.125,1.075,0.875,0.975,1.025,0.925],"loop_number":"NA","everTouched":null},{"id":"test","shape":"hinge","outlier_type":3,"choice":5,"outlierPosition":5,"success":true,"majorityOfMostRegularShapes":true,"rt":2606.0999999999767,"rot1":5,"rot2":-5,"rot3":-25,"rot4":-15,"rot5":15,"rot6":25,"dil1":0.875,"dil2":0.975,"dil3":1.075,"dil4":0.925,"dil5":1.025,"dil6":1.125,"rots":[5,-5,-25,-15,15,25],"dils":[0.875,0.975,1.075,0.925,1.025,1.125],"loop_number":"NA","everTouched":null},{"id":"test","shape":"parallelogram","outlier_type":2,"choice":1,"outlierPosition":0,"success":false,"majorityOfMostRegularShapes":true,"rt":3308.2999999996973,"rot1":15,"rot2":-5,"rot3":-15,"rot4":5,"rot5":-25,"rot6":25,"dil1":1.075,"dil2":0.975,"dil3":1.125,"dil4":1.025,"dil5":0.875,"dil6":0.925,"rots":[15,-5,-15,5,-25,25],"dils":[1.075,0.975,1.125,1.025,0.875,0.925],"loop_number":"NA","everTouched":null},{"id":"test","shape":"square","outlier_type":3,"choice":0,"outlierPosition":0,"success":true,"majorityOfMostRegularShapes":true,"rt":4228.700000000594,"rot1":-5,"rot2":-25,"rot3":25,"rot4":15,"rot5":5,"rot6":-15,"dil1":0.925,"dil2":1.025,"dil3":0.975,"dil4":0.875,"dil5":1.075,"dil6":1.125,"rots":[-5,-25,25,15,5,-15],"dils":[0.925,1.025,0.975,0.875,1.075,1.125],"loop_number":"NA","everTouched":null},{"id":"test","shape":"trapezoid","outlier_type":0,"choice":2,"outlierPosition":2,"success":true,"majorityOfMostRegularShapes":true,"rt":2172.999999999767,"rot1":-25,"rot2":25,"rot3":-5,"rot4":-15,"rot5":15,"rot6":5,"dil1":0.925,"dil2":1.075,"dil3":0.975,"dil4":0.875,"dil5":1.025,"dil6":1.125,"rots":[-25,25,-5,-15,15,5],"dils":[0.925,1.075,0.975,0.875,1.025,1.125],"loop_number":"NA","everTouched":null},{"id":"test","shape":"rightKite","outlier_type":3,"choice":5,"outlierPosition":1,"success":false,"majorityOfMostRegularShapes":true,"rt":8166.39999999915,"rot1":25,"rot2":-15,"rot3":-25,"rot4":-5,"rot5":15,"rot6":5,"dil1":1.025,"dil2":1.125,"dil3":0.975,"dil4":0.925,"dil5":1.075,"dil6":0.875,"rots":[25,-15,-25,-5,15,5],"dils":[1.025,1.125,0.975,0.925,1.075,0.875],"loop_number":"NA","everTouched":null},{"id":"test","shape":"losange","outlier_type":0,"choice":3,"outlierPosition":1,"success":false,"majorityOfMostRegularShapes":true,"rt":4205.100000000093,"rot1":5,"rot2":-15,"rot3":25,"rot4":-25,"rot5":-5,"rot6":15,"dil1":0.875,"dil2":0.975,"dil3":1.075,"dil4":0.925,"dil5":1.025,"dil6":1.125,"rots":[5,-15,25,-25,-5,15],"dils":[0.875,0.975,1.075,0.925,1.025,1.125],"loop_number":"NA","everTouched":null},{"id":"test","shape":"rightKite","outlier_type":1,"choice":2,"outlierPosition":0,"success":false,"majorityOfMostRegularShapes":true,"rt":5408.700000000885,"rot1":-15,"rot2":5,"rot3":15,"rot4":-5,"rot5":-25,"rot6":25,"dil1":1.075,"dil2":1.125,"dil3":0.875,"dil4":0.925,"dil5":1.025,"dil6":0.975,"rots":[-15,5,15,-5,-25,25],"dils":[1.075,1.125,0.875,0.925,1.025,0.975],"loop_number":"NA","everTouched":null},{"id":"test","shape":"hinge","outlier_type":2,"choice":5,"outlierPosition":5,"success":true,"majorityOfMostRegularShapes":true,"rt":5171.400000000198,"rot1":25,"rot2":5,"rot3":15,"rot4":-25,"rot5":-15,"rot6":-5,"dil1":1.125,"dil2":0.975,"dil3":1.025,"dil4":0.925,"dil5":1.075,"dil6":0.875,"rots":[25,5,15,-25,-15,-5],"dils":[1.125,0.975,1.025,0.925,1.075,0.875],"loop_number":"NA","everTouched":null},{"id":"test","shape":"rightKite","outlier_type":0,"choice":3,"outlierPosition":3,"success":true,"majorityOfMostRegularShapes":true,"rt":7534.20000000007,"rot1":25,"rot2":-25,"rot3":15,"rot4":-5,"rot5":5,"rot6":-15,"dil1":1.025,"dil2":0.925,"dil3":1.125,"dil4":0.875,"dil5":1.075,"dil6":0.975,"rots":[25,-25,15,-5,5,-15],"dils":[1.025,0.925,1.125,0.875,1.075,0.975],"loop_number":"NA","everTouched":null},{"id":"test","shape":"rectangle","outlier_type":3,"choice":2,"outlierPosition":2,"success":true,"majorityOfMostRegularShapes":true,"rt":8013.899999999907,"rot1":-15,"rot2":-25,"rot3":-5,"rot4":25,"rot5":15,"rot6":5,"dil1":0.925,"dil2":1.075,"dil3":0.975,"dil4":1.025,"dil5":1.125,"dil6":0.875,"rots":[-15,-25,-5,25,15,5],"dils":[0.925,1.075,0.975,1.025,1.125,0.875],"loop_number":"NA","everTouched":null},{"id":"test","shape":"random","outlier_type":2,"choice":1,"outlierPosition":5,"success":false,"majorityOfMostRegularShapes":true,"rt":4479.000000000291,"rot1":-15,"rot2":-25,"rot3":15,"rot4":25,"rot5":-5,"rot6":5,"dil1":1.075,"dil2":1.125,"dil3":0.975,"dil4":0.875,"dil5":0.925,"dil6":1.025,"rots":[-15,-25,15,25,-5,5],"dils":[1.075,1.125,0.975,0.875,0.925,1.025],"loop_number":"NA","everTouched":null},{"id":"test","shape":"parallelogram","outlier_type":0,"choice":0,"outlierPosition":3,"success":false,"majorityOfMostRegularShapes":true,"rt":10092.499999999709,"rot1":-15,"rot2":15,"rot3":-25,"rot4":-5,"rot5":5,"rot6":25,"dil1":1.075,"dil2":0.975,"dil3":1.025,"dil4":0.875,"dil5":0.925,"dil6":1.125,"rots":[-15,15,-25,-5,5,25],"dils":[1.075,0.975,1.025,0.875,0.925,1.125],"loop_number":"NA","everTouched":null},{"id":"test","shape":"kite","outlier_type":3,"choice":0,"outlierPosition":4,"success":false,"majorityOfMostRegularShapes":true,"rt":7036.499999999243,"rot1":5,"rot2":-25,"rot3":-15,"rot4":-5,"rot5":15,"rot6":25,"dil1":0.875,"dil2":1.125,"dil3":0.925,"dil4":0.975,"dil5":1.025,"dil6":1.075,"rots":[5,-25,-15,-5,15,25],"dils":[0.875,1.125,0.925,0.975,1.025,1.075],"loop_number":"NA","everTouched":null},{"id":"test","shape":"square","outlier_type":1,"choice":0,"outlierPosition":0,"success":true,"majorityOfMostRegularShapes":true,"rt":3057.999999999942,"rot1":15,"rot2":25,"rot3":-25,"rot4":-5,"rot5":-15,"rot6":5,"dil1":1.125,"dil2":1.075,"dil3":1.025,"dil4":0.975,"dil5":0.875,"dil6":0.925,"rots":[15,25,-25,-5,-15,5],"dils":[1.125,1.075,1.025,0.975,0.875,0.925],"loop_number":"NA","everTouched":null},{"id":"test","shape":"rustedHinge","outlier_type":2,"choice":1,"outlierPosition":1,"success":true,"majorityOfMostRegularShapes":true,"rt":6541.699999999779,"rot1":25,"rot2":-15,"rot3":-25,"rot4":15,"rot5":-5,"rot6":5,"dil1":0.875,"dil2":1.125,"dil3":0.925,"dil4":0.975,"dil5":1.025,"dil6":1.075,"rots":[25,-15,-25,15,-5,5],"dils":[0.875,1.125,0.925,0.975,1.025,1.075],"loop_number":"NA","everTouched":null},{"id":"test","shape":"isoTrapezoid","outlier_type":0,"choice":5,"outlierPosition":5,"success":true,"majorityOfMostRegularShapes":true,"rt":8899.999999999593,"rot1":-15,"rot2":-25,"rot3":15,"rot4":-5,"rot5":5,"rot6":25,"dil1":1.075,"dil2":1.125,"dil3":0.975,"dil4":0.925,"dil5":1.025,"dil6":0.875,"rots":[-15,-25,15,-5,5,25],"dils":[1.075,1.125,0.975,0.925,1.025,0.875],"loop_number":"NA","everTouched":null},{"id":"test","shape":"rectangle","outlier_type":2,"choice":3,"outlierPosition":3,"success":true,"majorityOfMostRegularShapes":true,"rt":5444.400000000256,"rot1":-25,"rot2":-5,"rot3":25,"rot4":15,"rot5":5,"rot6":-15,"dil1":1.075,"dil2":0.975,"dil3":1.025,"dil4":1.125,"dil5":0.925,"dil6":0.875,"rots":[-25,-5,25,15,5,-15],"dils":[1.075,0.975,1.025,1.125,0.925,0.875],"loop_number":"NA","everTouched":null},{"id":"test","shape":"kite","outlier_type":1,"choice":1,"outlierPosition":1,"success":true,"majorityOfMostRegularShapes":true,"rt":7181.000000000524,"rot1":15,"rot2":5,"rot3":-15,"rot4":-5,"rot5":-25,"rot6":25,"dil1":0.875,"dil2":0.925,"dil3":1.125,"dil4":1.075,"dil5":0.975,"dil6":1.025,"rots":[15,5,-15,-5,-25,25],"dils":[0.875,0.925,1.125,1.075,0.975,1.025],"loop_number":"NA","everTouched":null},{"id":"test","shape":"losange","outlier_type":2,"choice":4,"outlierPosition":4,"success":true,"majorityOfMostRegularShapes":true,"rt":5787.700000000768,"rot1":5,"rot2":-15,"rot3":-25,"rot4":25,"rot5":-5,"rot6":15,"dil1":1.025,"dil2":0.925,"dil3":0.975,"dil4":1.125,"dil5":0.875,"dil6":1.075,"rots":[5,-15,-25,25,-5,15],"dils":[1.025,0.925,0.975,1.125,0.875,1.075],"loop_number":"NA","everTouched":null},{"id":"test","shape":"trapezoid","outlier_type":3,"choice":2,"outlierPosition":2,"success":true,"majorityOfMostRegularShapes":true,"rt":7104.800000000105,"rot1":5,"rot2":-5,"rot3":-25,"rot4":25,"rot5":15,"rot6":-15,"dil1":1.025,"dil2":0.925,"dil3":0.875,"dil4":1.125,"dil5":1.075,"dil6":0.975,"rots":[5,-5,-25,25,15,-15],"dils":[1.025,0.925,0.875,1.125,1.075,0.975],"loop_number":"NA","everTouched":null},{"id":"test","shape":"kite","outlier_type":2,"choice":1,"outlierPosition":3,"success":false,"majorityOfMostRegularShapes":true,"rt":3195.7999999995227,"rot1":15,"rot2":-25,"rot3":-5,"rot4":25,"rot5":5,"rot6":-15,"dil1":0.925,"dil2":0.875,"dil3":1.125,"dil4":0.975,"dil5":1.075,"dil6":1.025,"rots":[15,-25,-5,25,5,-15],"dils":[0.925,0.875,1.125,0.975,1.075,1.025],"loop_number":"NA","everTouched":null},{"id":"test","shape":"isoTrapezoid","outlier_type":1,"choice":0,"outlierPosition":0,"success":true,"majorityOfMostRegularShapes":true,"rt":6150.20000000007,"rot1":-5,"rot2":-25,"rot3":-15,"rot4":15,"rot5":25,"rot6":5,"dil1":1.075,"dil2":0.975,"dil3":1.125,"dil4":0.925,"dil5":0.875,"dil6":1.025,"rots":[-5,-25,-15,15,25,5],"dils":[1.075,0.975,1.125,0.925,0.875,1.025],"loop_number":"NA","everTouched":null},{"id":"test","shape":"square","outlier_type":2,"choice":5,"outlierPosition":5,"success":true,"majorityOfMostRegularShapes":true,"rt":5367.499999999418,"rot1":15,"rot2":-15,"rot3":5,"rot4":-5,"rot5":-25,"rot6":25,"dil1":0.875,"dil2":0.975,"dil3":0.925,"dil4":1.125,"dil5":1.025,"dil6":1.075,"rots":[15,-15,5,-5,-25,25],"dils":[0.875,0.975,0.925,1.125,1.025,1.075],"loop_number":"NA","everTouched":null},{"id":"test","shape":"isoTrapezoid","outlier_type":3,"choice":4,"outlierPosition":4,"success":true,"majorityOfMostRegularShapes":true,"rt":5740.900000000722,"rot1":-5,"rot2":25,"rot3":5,"rot4":15,"rot5":-15,"rot6":-25,"dil1":1.075,"dil2":0.925,"dil3":1.025,"dil4":0.975,"dil5":0.875,"dil6":1.125,"rots":[-5,25,5,15,-15,-25],"dils":[1.075,0.925,1.025,0.975,0.875,1.125],"loop_number":"NA","everTouched":null},{"id":"test","shape":"random","outlier_type":3,"choice":5,"outlierPosition":5,"success":true,"majorityOfMostRegularShapes":true,"rt":5075.600000000151,"rot1":25,"rot2":-15,"rot3":-5,"rot4":5,"rot5":-25,"rot6":15,"dil1":1.125,"dil2":0.875,"dil3":1.025,"dil4":0.925,"dil5":0.975,"dil6":1.075,"rots":[25,-15,-5,5,-25,15],"dils":[1.125,0.875,1.025,0.925,0.975,1.075],"loop_number":"NA","everTouched":null},{"id":"test","shape":"hinge","outlier_type":0,"choice":1,"outlierPosition":1,"success":true,"majorityOfMostRegularShapes":true,"rt":4935.599999999802,"rot1":-25,"rot2":-5,"rot3":25,"rot4":-15,"rot5":5,"rot6":15,"dil1":1.025,"dil2":0.975,"dil3":0.875,"dil4":0.925,"dil5":1.075,"dil6":1.125,"rots":[-25,-5,25,-15,5,15],"dils":[1.025,0.975,0.875,0.925,1.075,1.125],"loop_number":"NA","everTouched":null},{"id":"test","shape":"losange","outlier_type":3,"choice":2,"outlierPosition":2,"success":true,"majorityOfMostRegularShapes":true,"rt":5517.499999999942,"rot1":5,"rot2":-25,"rot3":-15,"rot4":-5,"rot5":25,"rot6":15,"dil1":1.075,"dil2":0.925,"dil3":1.125,"dil4":0.975,"dil5":0.875,"dil6":1.025,"rots":[5,-25,-15,-5,25,15],"dils":[1.075,0.925,1.125,0.975,0.875,1.025],"loop_number":"NA","everTouched":null},{"id":"test","shape":"rectangle","outlier_type":0,"choice":4,"outlierPosition":4,"success":true,"majorityOfMostRegularShapes":true,"rt":2606.9000000006636,"rot1":5,"rot2":25,"rot3":-5,"rot4":-15,"rot5":-25,"rot6":15,"dil1":1.075,"dil2":1.025,"dil3":0.975,"dil4":0.925,"dil5":1.125,"dil6":0.875,"rots":[5,25,-5,-15,-25,15],"dils":[1.075,1.025,0.975,0.925,1.125,0.875],"loop_number":"NA","everTouched":null},{"id":"test","shape":"rightKite","outlier_type":2,"choice":2,"outlierPosition":4,"success":false,"majorityOfMostRegularShapes":true,"rt":8560.199999999895,"rot1":5,"rot2":-15,"rot3":15,"rot4":-25,"rot5":-5,"rot6":25,"dil1":1.075,"dil2":0.975,"dil3":0.875,"dil4":1.125,"dil5":0.925,"dil6":1.025,"rots":[5,-15,15,-25,-5,25],"dils":[1.075,0.975,0.875,1.125,0.925,1.025],"loop_number":"NA","everTouched":null}],"desiredDistance":0.3,"trial_type":"oddball-grid","trial_index":3,"time_elapsed":499538,"internal_node_id":"0.0-3.0","ID":"06g05bg8n7"},{"success":true,"trial_type":"fullscreen","trial_index":4,"time_elapsed":505308,"internal_node_id":"0.0-4.0","ID":"06g05bg8n7"}]