[{"success":true,"trial_type":"fullscreen","trial_index":0,"time_elapsed":17612,"internal_node_id":"0.0-0.0","ID":"mw2khozboy"},{"results":[{"id":"train-images","shape":"3","outlier_type":"NA","choice":3,"outlierPosition":3,"success":true,"majorityOfMostRegularShapes":"NA","rt":3588.400000000547,"rot1":25,"rot2":15,"rot3":-5,"rot4":-25,"rot5":5,"rot6":-15,"dil1":1.075,"dil2":0.925,"dil3":0.875,"dil4":0.975,"dil5":1.025,"dil6":1.125,"rots":[25,15,-5,-25,5,-15],"dils":[1.075,0.925,0.875,0.975,1.025,1.125],"loop_number":1,"everTouched":null},{"id":"train-images","shape":"5","outlier_type":"NA","choice":4,"outlierPosition":4,"success":true,"majorityOfMostRegularShapes":"NA","rt":9116.59999999938,"rot1":-15,"rot2":-5,"rot3":25,"rot4":-25,"rot5":15,"rot6":5,"dil1":0.925,"dil2":1.075,"dil3":0.875,"dil4":1.125,"dil5":0.975,"dil6":1.025,"rots":[-15,-5,25,-25,15,5],"dils":[0.925,1.075,0.875,1.125,0.975,1.025],"loop_number":1,"everTouched":null},{"id":"train-images","shape":"7","outlier_type":"NA","choice":2,"outlierPosition":2,"success":true,"majorityOfMostRegularShapes":"NA","rt":5828.199999999924,"rot1":5,"rot2":-5,"rot3":25,"rot4":-25,"rot5":15,"rot6":-15,"dil1":0.875,"dil2":0.925,"dil3":1.025,"dil4":0.975,"dil5":1.125,"dil6":1.075,"rots":[5,-5,25,-25,15,-15],"dils":[0.875,0.925,1.025,0.975,1.125,1.075],"loop_number":1,"everTouched":null},{"id":"train-images","shape":"4","outlier_type":"NA","choice":5,"outlierPosition":5,"success":true,"majorityOfMostRegularShapes":"NA","rt":4069.2999999992026,"rot1":25,"rot2":-25,"rot3":-5,"rot4":15,"rot5":5,"rot6":-15,"dil1":1.125,"dil2":1.025,"dil3":0.875,"dil4":0.975,"dil5":0.925,"dil6":1.075,"rots":[25,-25,-5,15,5,-15],"dils":[1.125,1.025,0.875,0.975,0.925,1.075],"loop_number":1,"everTouched":null},{"id":"train-images","shape":"9","outlier_type":"NA","choice":1,"outlierPosition":1,"success":true,"majorityOfMostRegularShapes":"NA","rt":1671.4000000010856,"rot1":15,"rot2":25,"rot3":-15,"rot4":5,"rot5":-25,"rot6":-5,"dil1":1.075,"dil2":0.925,"dil3":0.875,"dil4":1.125,"dil5":1.025,"dil6":0.975,"rots":[15,25,-15,5,-25,-5],"dils":[1.075,0.925,0.875,1.125,1.025,0.975],"loop_number":1,"everTouched":null},{"id":"train-images","shape":"6","outlier_type":"NA","choice":0,"outlierPosition":0,"success":true,"majorityOfMostRegularShapes":"NA","rt":2259.4000000008236,"rot1":15,"rot2":5,"rot3":25,"rot4":-25,"rot5":-5,"rot6":-15,"dil1":1.125,"dil2":0.875,"dil3":1.025,"dil4":1.075,"dil5":0.975,"dil6":0.925,"rots":[15,5,25,-25,-5,-15],"dils":[1.125,0.875,1.025,1.075,0.975,0.925],"loop_number":1,"everTouched":null},{"id":"train-images","shape":"8","outlier_type":"NA","choice":4,"outlierPosition":4,"success":true,"majorityOfMostRegularShapes":"NA","rt":2763.300000000527,"rot1":-25,"rot2":25,"rot3":15,"rot4":5,"rot5":-15,"rot6":-5,"dil1":1.075,"dil2":1.025,"dil3":1.125,"dil4":0.875,"dil5":0.975,"dil6":0.925,"rots":[-25,25,15,5,-15,-5],"dils":[1.075,1.025,1.125,0.875,0.975,0.925],"loop_number":1,"everTouched":null},{"id":"train-images","shape":"2","outlier_type":"NA","choice":0,"outlierPosition":0,"success":true,"majorityOfMostRegularShapes":"NA","rt":2918.20000000007,"rot1":-15,"rot2":-5,"rot3":15,"rot4":5,"rot5":25,"rot6":-25,"dil1":0.925,"dil2":1.075,"dil3":1.125,"dil4":0.875,"dil5":1.025,"dil6":0.975,"rots":[-15,-5,15,5,25,-25],"dils":[0.925,1.075,1.125,0.875,1.025,0.975],"loop_number":1,"everTouched":null},{"id":"train-images","shape":"1","outlier_type":"NA","choice":4,"outlierPosition":4,"success":true,"majorityOfMostRegularShapes":"NA","rt":2160.299999999552,"rot1":-5,"rot2":15,"rot3":5,"rot4":-25,"rot5":25,"rot6":-15,"dil1":1.075,"dil2":1.125,"dil3":0.975,"dil4":1.025,"dil5":0.925,"dil6":0.875,"rots":[-5,15,5,-25,25,-15],"dils":[1.075,1.125,0.975,1.025,0.925,0.875],"loop_number":1,"everTouched":null},{"id":"train-images","shape":"10","outlier_type":"NA","choice":0,"outlierPosition":0,"success":true,"majorityOfMostRegularShapes":"NA","rt":2417.7999999992608,"rot1":-15,"rot2":15,"rot3":-25,"rot4":5,"rot5":-5,"rot6":25,"dil1":0.925,"dil2":1.125,"dil3":1.075,"dil4":0.875,"dil5":0.975,"dil6":1.025,"rots":[-15,15,-25,5,-5,25],"dils":[0.925,1.125,1.075,0.875,0.975,1.025],"loop_number":1,"everTouched":null}],"trial_type":"oddball-grid-image","trial_index":1,"time_elapsed":101925,"internal_node_id":"0.0-1.0","ID":"mw2khozboy"},{"results":[{"id":"train","shape":null,"outlier_type":null,"choice":4,"outlierPosition":4,"success":true,"majorityOfMostRegularShapes":null,"rt":2961.1000000004424,"rot1":-5,"rot2":15,"rot3":-25,"rot4":25,"rot5":5,"rot6":-15,"dil1":1.075,"dil2":0.875,"dil3":0.925,"dil4":1.125,"dil5":0.975,"dil6":1.025,"rots":[-5,15,-25,25,5,-15],"dils":[1.075,0.875,0.925,1.125,0.975,1.025],"loop_number":1,"everTouched":null},{"id":"train","shape":null,"outlier_type":null,"choice":2,"outlierPosition":2,"success":true,"majorityOfMostRegularShapes":null,"rt":2763.300000000527,"rot1":-5,"rot2":15,"rot3":-25,"rot4":-15,"rot5":25,"rot6":5,"dil1":0.875,"dil2":0.975,"dil3":0.925,"dil4":1.125,"dil5":1.025,"dil6":1.075,"rots":[-5,15,-25,-15,25,5],"dils":[0.875,0.975,0.925,1.125,1.025,1.075],"loop_number":1,"everTouched":null},{"id":"train","shape":null,"outlier_type":null,"choice":2,"outlierPosition":2,"success":true,"majorityOfMostRegularShapes":null,"rt":2716.8000000001484,"rot1":-5,"rot2":25,"rot3":15,"rot4":5,"rot5":-15,"rot6":-25,"dil1":0.875,"dil2":1.025,"dil3":0.925,"dil4":1.075,"dil5":0.975,"dil6":1.125,"rots":[-5,25,15,5,-15,-25],"dils":[0.875,1.025,0.925,1.075,0.975,1.125],"loop_number":1,"everTouched":null},{"id":"train","shape":null,"outlier_type":null,"choice":4,"outlierPosition":4,"success":true,"majorityOfMostRegularShapes":null,"rt":1284.79999999945,"rot1":-15,"rot2":5,"rot3":-5,"rot4":-25,"rot5":25,"rot6":15,"dil1":0.975,"dil2":1.075,"dil3":1.025,"dil4":1.125,"dil5":0.925,"dil6":0.875,"rots":[-15,5,-5,-25,25,15],"dils":[0.975,1.075,1.025,1.125,0.925,0.875],"loop_number":1,"everTouched":null},{"id":"train","shape":null,"outlier_type":null,"choice":2,"outlierPosition":2,"success":true,"majorityOfMostRegularShapes":null,"rt":4877.500000000495,"rot1":-5,"rot2":5,"rot3":-25,"rot4":25,"rot5":-15,"rot6":15,"dil1":1.125,"dil2":1.025,"dil3":1.075,"dil4":0.975,"dil5":0.875,"dil6":0.925,"rots":[-5,5,-25,25,-15,15],"dils":[1.125,1.025,1.075,0.975,0.875,0.925],"loop_number":1,"everTouched":null},{"id":"train","shape":null,"outlier_type":null,"choice":3,"outlierPosition":3,"success":true,"majorityOfMostRegularShapes":null,"rt":3101.200000000943,"rot1":15,"rot2":-15,"rot3":5,"rot4":-5,"rot5":25,"rot6":-25,"dil1":1.075,"dil2":1.125,"dil3":0.925,"dil4":0.875,"dil5":1.025,"dil6":0.975,"rots":[15,-15,5,-5,25,-25],"dils":[1.075,1.125,0.925,0.875,1.025,0.975],"loop_number":1,"everTouched":null}],"desiredDistance":0.3,"trial_type":"oddball-grid-easy","trial_index":2,"time_elapsed":139366,"internal_node_id":"0.0-2.0","ID":"mw2khozboy"},{"results":[{"id":"test","shape":"losange","outlier_type":1,"choice":2,"outlierPosition":2,"success":true,"majorityOfMostRegularShapes":true,"rt":6305.699999998993,"rot1":-5,"rot2":25,"rot3":-25,"rot4":15,"rot5":5,"rot6":-15,"dil1":0.975,"dil2":1.025,"dil3":0.925,"dil4":0.875,"dil5":1.075,"dil6":1.125,"rots":[-5,25,-25,15,5,-15],"dils":[0.975,1.025,0.925,0.875,1.075,1.125],"loop_number":"NA","everTouched":null},{"id":"test","shape":"hinge","outlier_type":3,"choice":0,"outlierPosition":0,"success":true,"majorityOfMostRegularShapes":true,"rt":4033.6999999999534,"rot1":25,"rot2":-25,"rot3":-5,"rot4":5,"rot5":-15,"rot6":15,"dil1":0.875,"dil2":1.025,"dil3":0.925,"dil4":0.975,"dil5":1.075,"dil6":1.125,"rots":[25,-25,-5,5,-15,15],"dils":[0.875,1.025,0.925,0.975,1.075,1.125],"loop_number":"NA","everTouched":null},{"id":"test","shape":"rectangle","outlier_type":1,"choice":0,"outlierPosition":0,"success":true,"majorityOfMostRegularShapes":true,"rt":2370.8000000005995,"rot1":-15,"rot2":-25,"rot3":25,"rot4":5,"rot5":-5,"rot6":15,"dil1":1.075,"dil2":0.975,"dil3":1.025,"dil4":1.125,"dil5":0.875,"dil6":0.925,"rots":[-15,-25,25,5,-5,15],"dils":[1.075,0.975,1.025,1.125,0.875,0.925],"loop_number":"NA","everTouched":null},{"id":"test","shape":"losange","outlier_type":2,"choice":4,"outlierPosition":4,"success":true,"majorityOfMostRegularShapes":true,"rt":10026.100000000966,"rot1":-15,"rot2":-25,"rot3":25,"rot4":5,"rot5":-5,"rot6":15,"dil1":1.075,"dil2":1.025,"dil3":0.875,"dil4":1.125,"dil5":0.975,"dil6":0.925,"rots":[-15,-25,25,5,-5,15],"dils":[1.075,1.025,0.875,1.125,0.975,0.925],"loop_number":"NA","everTouched":null},{"id":"test","shape":"square","outlier_type":3,"choice":2,"outlierPosition":2,"success":true,"majorityOfMostRegularShapes":true,"rt":1634.7999999998137,"rot1":5,"rot2":-25,"rot3":-15,"rot4":-5,"rot5":15,"rot6":25,"dil1":1.025,"dil2":0.925,"dil3":1.125,"dil4":1.075,"dil5":0.975,"dil6":0.875,"rots":[5,-25,-15,-5,15,25],"dils":[1.025,0.925,1.125,1.075,0.975,0.875],"loop_number":"NA","everTouched":null},{"id":"test","shape":"hinge","outlier_type":2,"choice":0,"outlierPosition":3,"success":false,"majorityOfMostRegularShapes":true,"rt":3424.499999999185,"rot1":15,"rot2":-15,"rot3":25,"rot4":5,"rot5":-25,"rot6":-5,"dil1":0.875,"dil2":0.975,"dil3":0.925,"dil4":1.125,"dil5":1.025,"dil6":1.075,"rots":[15,-15,25,5,-25,-5],"dils":[0.875,0.975,0.925,1.125,1.025,1.075],"loop_number":"NA","everTouched":null},{"id":"test","shape":"rustedHinge","outlier_type":1,"choice":3,"outlierPosition":0,"success":false,"majorityOfMostRegularShapes":true,"rt":9916.100000000355,"rot1":15,"rot2":-5,"rot3":-25,"rot4":25,"rot5":-15,"rot6":5,"dil1":0.975,"dil2":0.875,"dil3":1.025,"dil4":1.075,"dil5":1.125,"dil6":0.925,"rots":[15,-5,-25,25,-15,5],"dils":[0.975,0.875,1.025,1.075,1.125,0.925],"loop_number":"NA","everTouched":null},{"id":"test","shape":"isoTrapezoid","outlier_type":2,"choice":5,"outlierPosition":5,"success":true,"majorityOfMostRegularShapes":true,"rt":4555.899999999383,"rot1":25,"rot2":-25,"rot3":5,"rot4":-15,"rot5":-5,"rot6":15,"dil1":1.025,"dil2":0.875,"dil3":0.975,"dil4":0.925,"dil5":1.075,"dil6":1.125,"rots":[25,-25,5,-15,-5,15],"dils":[1.025,0.875,0.975,0.925,1.075,1.125],"loop_number":"NA","everTouched":null},{"id":"test","shape":"rectangle","outlier_type":0,"choice":1,"outlierPosition":1,"success":true,"majorityOfMostRegularShapes":true,"rt":3442.5000000010186,"rot1":25,"rot2":-15,"rot3":5,"rot4":-5,"rot5":15,"rot6":-25,"dil1":1.025,"dil2":1.075,"dil3":0.975,"dil4":0.875,"dil5":0.925,"dil6":1.125,"rots":[25,-15,5,-5,15,-25],"dils":[1.025,1.075,0.975,0.875,0.925,1.125],"loop_number":"NA","everTouched":null},{"id":"test","shape":"trapezoid","outlier_type":1,"choice":2,"outlierPosition":2,"success":true,"majorityOfMostRegularShapes":true,"rt":5257.3000000011525,"rot1":15,"rot2":25,"rot3":5,"rot4":-25,"rot5":-15,"rot6":-5,"dil1":0.925,"dil2":1.125,"dil3":0.975,"dil4":1.025,"dil5":1.075,"dil6":0.875,"rots":[15,25,5,-25,-15,-5],"dils":[0.925,1.125,0.975,1.025,1.075,0.875],"loop_number":"NA","everTouched":null},{"id":"test","shape":"kite","outlier_type":2,"choice":4,"outlierPosition":5,"success":false,"majorityOfMostRegularShapes":true,"rt":7999.499999999913,"rot1":-25,"rot2":5,"rot3":15,"rot4":-5,"rot5":25,"rot6":-15,"dil1":0.975,"dil2":0.925,"dil3":0.875,"dil4":1.025,"dil5":1.075,"dil6":1.125,"rots":[-25,5,15,-5,25,-15],"dils":[0.975,0.925,0.875,1.025,1.075,1.125],"loop_number":"NA","everTouched":null},{"id":"test","shape":"random","outlier_type":1,"choice":5,"outlierPosition":5,"success":true,"majorityOfMostRegularShapes":true,"rt":3803.7999999996973,"rot1":15,"rot2":5,"rot3":25,"rot4":-15,"rot5":-25,"rot6":-5,"dil1":1.125,"dil2":1.025,"dil3":1.075,"dil4":0.975,"dil5":0.875,"dil6":0.925,"rots":[15,5,25,-15,-25,-5],"dils":[1.125,1.025,1.075,0.975,0.875,0.925],"loop_number":"NA","everTouched":null},{"id":"test","shape":"trapezoid","outlier_type":3,"choice":1,"outlierPosition":1,"success":true,"majorityOfMostRegularShapes":true,"rt":12769.399999999237,"rot1":5,"rot2":-25,"rot3":-15,"rot4":15,"rot5":-5,"rot6":25,"dil1":1.075,"dil2":0.875,"dil3":0.975,"dil4":0.925,"dil5":1.125,"dil6":1.025,"rots":[5,-25,-15,15,-5,25],"dils":[1.075,0.875,0.975,0.925,1.125,1.025],"loop_number":"NA","everTouched":null},{"id":"test","shape":"rightKite","outlier_type":2,"choice":3,"outlierPosition":3,"success":true,"majorityOfMostRegularShapes":true,"rt":6633.099999999104,"rot1":-25,"rot2":25,"rot3":-5,"rot4":15,"rot5":5,"rot6":-15,"dil1":0.875,"dil2":0.975,"dil3":0.925,"dil4":1.125,"dil5":1.025,"dil6":1.075,"rots":[-25,25,-5,15,5,-15],"dils":[0.875,0.975,0.925,1.125,1.025,1.075],"loop_number":"NA","everTouched":null},{"id":"test","shape":"rustedHinge","outlier_type":3,"choice":0,"outlierPosition":0,"success":true,"majorityOfMostRegularShapes":true,"rt":4783.800000001094,"rot1":-25,"rot2":15,"rot3":25,"rot4":5,"rot5":-15,"rot6":-5,"dil1":1.125,"dil2":0.875,"dil3":0.925,"dil4":1.075,"dil5":1.025,"dil6":0.975,"rots":[-25,15,25,5,-15,-5],"dils":[1.125,0.875,0.925,1.075,1.025,0.975],"loop_number":"NA","everTouched":null},{"id":"test","shape":"isoTrapezoid","outlier_type":0,"choice":1,"outlierPosition":1,"success":true,"majorityOfMostRegularShapes":true,"rt":5108.900000001129,"rot1":-5,"rot2":-25,"rot3":15,"rot4":-15,"rot5":25,"rot6":5,"dil1":1.025,"dil2":1.125,"dil3":0.975,"dil4":0.875,"dil5":1.075,"dil6":0.925,"rots":[-5,-25,15,-15,25,5],"dils":[1.025,1.125,0.975,0.875,1.075,0.925],"loop_number":"NA","everTouched":null},{"id":"test","shape":"random","outlier_type":3,"choice":5,"outlierPosition":5,"success":true,"majorityOfMostRegularShapes":true,"rt":2951.199999999546,"rot1":-15,"rot2":-5,"rot3":25,"rot4":5,"rot5":-25,"rot6":15,"dil1":0.925,"dil2":0.875,"dil3":1.125,"dil4":1.025,"dil5":0.975,"dil6":1.075,"rots":[-15,-5,25,5,-25,15],"dils":[0.925,0.875,1.125,1.025,0.975,1.075],"loop_number":"NA","everTouched":null},{"id":"test","shape":"kite","outlier_type":0,"choice":5,"outlierPosition":3,"success":false,"majorityOfMostRegularShapes":true,"rt":7875.599999999395,"rot1":15,"rot2":5,"rot3":-15,"rot4":-25,"rot5":25,"rot6":-5,"dil1":1.125,"dil2":1.075,"dil3":1.025,"dil4":0.925,"dil5":0.975,"dil6":0.875,"rots":[15,5,-15,-25,25,-5],"dils":[1.125,1.075,1.025,0.925,0.975,0.875],"loop_number":"NA","everTouched":null},{"id":"test","shape":"parallelogram","outlier_type":2,"choice":2,"outlierPosition":5,"success":false,"majorityOfMostRegularShapes":true,"rt":5200.500000000815,"rot1":5,"rot2":-5,"rot3":15,"rot4":-25,"rot5":-15,"rot6":25,"dil1":0.875,"dil2":0.925,"dil3":1.025,"dil4":1.075,"dil5":0.975,"dil6":1.125,"rots":[5,-5,15,-25,-15,25],"dils":[0.875,0.925,1.025,1.075,0.975,1.125],"loop_number":"NA","everTouched":null},{"id":"test","shape":"losange","outlier_type":3,"choice":0,"outlierPosition":1,"success":false,"majorityOfMostRegularShapes":true,"rt":4117.39999999915,"rot1":-5,"rot2":-25,"rot3":25,"rot4":-15,"rot5":5,"rot6":15,"dil1":1.125,"dil2":1.075,"dil3":0.925,"dil4":1.025,"dil5":0.875,"dil6":0.975,"rots":[-5,-25,25,-15,5,15],"dils":[1.125,1.075,0.925,1.025,0.875,0.975],"loop_number":"NA","everTouched":null},{"id":"test","shape":"trapezoid","outlier_type":0,"choice":1,"outlierPosition":1,"success":true,"majorityOfMostRegularShapes":true,"rt":7730.499999999709,"rot1":25,"rot2":-5,"rot3":-25,"rot4":-15,"rot5":5,"rot6":15,"dil1":0.875,"dil2":0.975,"dil3":1.125,"dil4":1.025,"dil5":1.075,"dil6":0.925,"rots":[25,-5,-25,-15,5,15],"dils":[0.875,0.975,1.125,1.025,1.075,0.925],"loop_number":"NA","everTouched":null},{"id":"test","shape":"kite","outlier_type":3,"choice":3,"outlierPosition":3,"success":true,"majorityOfMostRegularShapes":true,"rt":10627.900000001304,"rot1":-5,"rot2":-25,"rot3":25,"rot4":15,"rot5":5,"rot6":-15,"dil1":0.975,"dil2":1.125,"dil3":1.075,"dil4":0.925,"dil5":1.025,"dil6":0.875,"rots":[-5,-25,25,15,5,-15],"dils":[0.975,1.125,1.075,0.925,1.025,0.875],"loop_number":"NA","everTouched":null},{"id":"test","shape":"random","outlier_type":0,"choice":1,"outlierPosition":4,"success":false,"majorityOfMostRegularShapes":true,"rt":24875.20000000042,"rot1":-25,"rot2":-15,"rot3":5,"rot4":-5,"rot5":15,"rot6":25,"dil1":1.025,"dil2":0.875,"dil3":0.975,"dil4":0.925,"dil5":1.075,"dil6":1.125,"rots":[-25,-15,5,-5,15,25],"dils":[1.025,0.875,0.975,0.925,1.075,1.125],"loop_number":"NA","everTouched":null},{"id":"test","shape":"rectangle","outlier_type":3,"choice":5,"outlierPosition":5,"success":true,"majorityOfMostRegularShapes":true,"rt":2763.499999999127,"rot1":25,"rot2":5,"rot3":15,"rot4":-25,"rot5":-15,"rot6":-5,"dil1":1.075,"dil2":1.125,"dil3":1.025,"dil4":0.875,"dil5":0.925,"dil6":0.975,"rots":[25,5,15,-25,-15,-5],"dils":[1.075,1.125,1.025,0.875,0.925,0.975],"loop_number":"NA","everTouched":null},{"id":"test","shape":"hinge","outlier_type":1,"choice":1,"outlierPosition":1,"success":true,"majorityOfMostRegularShapes":true,"rt":8201.099999998405,"rot1":-25,"rot2":-5,"rot3":5,"rot4":25,"rot5":15,"rot6":-15,"dil1":0.975,"dil2":1.125,"dil3":1.025,"dil4":0.925,"dil5":0.875,"dil6":1.075,"rots":[-25,-5,5,25,15,-15],"dils":[0.975,1.125,1.025,0.925,0.875,1.075],"loop_number":"NA","everTouched":null},{"id":"test","shape":"losange","outlier_type":0,"choice":1,"outlierPosition":3,"success":false,"majorityOfMostRegularShapes":true,"rt":12431.400000001304,"rot1":5,"rot2":-25,"rot3":-15,"rot4":15,"rot5":25,"rot6":-5,"dil1":0.925,"dil2":1.125,"dil3":0.875,"dil4":0.975,"dil5":1.025,"dil6":1.075,"rots":[5,-25,-15,15,25,-5],"dils":[0.925,1.125,0.875,0.975,1.025,1.075],"loop_number":"NA","everTouched":null},{"id":"test","shape":"isoTrapezoid","outlier_type":3,"choice":2,"outlierPosition":2,"success":true,"majorityOfMostRegularShapes":true,"rt":3005.0000000009895,"rot1":-15,"rot2":-5,"rot3":25,"rot4":5,"rot5":-25,"rot6":15,"dil1":1.075,"dil2":1.125,"dil3":0.975,"dil4":1.025,"dil5":0.875,"dil6":0.925,"rots":[-15,-5,25,5,-25,15],"dils":[1.075,1.125,0.975,1.025,0.875,0.925],"loop_number":"NA","everTouched":null},{"id":"test","shape":"rustedHinge","outlier_type":2,"choice":4,"outlierPosition":4,"success":true,"majorityOfMostRegularShapes":true,"rt":6315.200000000885,"rot1":15,"rot2":5,"rot3":-15,"rot4":-5,"rot5":-25,"rot6":25,"dil1":0.975,"dil2":0.925,"dil3":1.075,"dil4":1.025,"dil5":0.875,"dil6":1.125,"rots":[15,5,-15,-5,-25,25],"dils":[0.975,0.925,1.075,1.025,0.875,1.125],"loop_number":"NA","everTouched":null},{"id":"test","shape":"rightKite","outlier_type":0,"choice":5,"outlierPosition":1,"success":false,"majorityOfMostRegularShapes":true,"rt":3786.2000000004773,"rot1":-15,"rot2":25,"rot3":-5,"rot4":15,"rot5":5,"rot6":-25,"dil1":0.875,"dil2":1.125,"dil3":0.975,"dil4":1.075,"dil5":1.025,"dil6":0.925,"rots":[-15,25,-5,15,5,-25],"dils":[0.875,1.125,0.975,1.075,1.025,0.925],"loop_number":"NA","everTouched":null},{"id":"test","shape":"parallelogram","outlier_type":3,"choice":1,"outlierPosition":1,"success":true,"majorityOfMostRegularShapes":true,"rt":3596.2999999992317,"rot1":-5,"rot2":-25,"rot3":15,"rot4":5,"rot5":-15,"rot6":25,"dil1":0.875,"dil2":1.075,"dil3":0.925,"dil4":1.025,"dil5":1.125,"dil6":0.975,"rots":[-5,-25,15,5,-15,25],"dils":[0.875,1.075,0.925,1.025,1.125,0.975],"loop_number":"NA","everTouched":null},{"id":"test","shape":"square","outlier_type":0,"choice":0,"outlierPosition":0,"success":true,"majorityOfMostRegularShapes":true,"rt":3464.7999999997555,"rot1":5,"rot2":-5,"rot3":15,"rot4":-15,"rot5":25,"rot6":-25,"dil1":1.075,"dil2":0.925,"dil3":1.025,"dil4":0.975,"dil5":1.125,"dil6":0.875,"rots":[5,-5,15,-15,25,-25],"dils":[1.075,0.925,1.025,0.975,1.125,0.875],"loop_number":"NA","everTouched":null},{"id":"test","shape":"trapezoid","outlier_type":2,"choice":0,"outlierPosition":0,"success":true,"majorityOfMostRegularShapes":true,"rt":4967.200000000943,"rot1":5,"rot2":-15,"rot3":15,"rot4":25,"rot5":-25,"rot6":-5,"dil1":0.875,"dil2":0.925,"dil3":1.025,"dil4":1.125,"dil5":0.975,"dil6":1.075,"rots":[5,-15,15,25,-25,-5],"dils":[0.875,0.925,1.025,1.125,0.975,1.075],"loop_number":"NA","everTouched":null},{"id":"test","shape":"rustedHinge","outlier_type":0,"choice":2,"outlierPosition":2,"success":true,"majorityOfMostRegularShapes":true,"rt":5750.7000000005355,"rot1":-5,"rot2":25,"rot3":-25,"rot4":-15,"rot5":5,"rot6":15,"dil1":0.875,"dil2":1.075,"dil3":1.125,"dil4":0.975,"dil5":0.925,"dil6":1.025,"rots":[-5,25,-25,-15,5,15],"dils":[0.875,1.075,1.125,0.975,0.925,1.025],"loop_number":"NA","everTouched":null},{"id":"test","shape":"square","outlier_type":1,"choice":3,"outlierPosition":3,"success":true,"majorityOfMostRegularShapes":true,"rt":2823.0999999996275,"rot1":-25,"rot2":15,"rot3":5,"rot4":25,"rot5":-5,"rot6":-15,"dil1":1.125,"dil2":1.025,"dil3":0.925,"dil4":0.975,"dil5":0.875,"dil6":1.075,"rots":[-25,15,5,25,-5,-15],"dils":[1.125,1.025,0.925,0.975,0.875,1.075],"loop_number":"NA","everTouched":null},{"id":"test","shape":"rectangle","outlier_type":2,"choice":3,"outlierPosition":3,"success":true,"majorityOfMostRegularShapes":true,"rt":2825.999999999127,"rot1":-15,"rot2":-5,"rot3":25,"rot4":15,"rot5":5,"rot6":-25,"dil1":0.875,"dil2":1.075,"dil3":0.925,"dil4":1.125,"dil5":1.025,"dil6":0.975,"rots":[-15,-5,25,15,5,-25],"dils":[0.875,1.075,0.925,1.125,1.025,0.975],"loop_number":"NA","everTouched":null},{"id":"test","shape":"hinge","outlier_type":0,"choice":2,"outlierPosition":2,"success":true,"majorityOfMostRegularShapes":true,"rt":3992.8999999992666,"rot1":-15,"rot2":25,"rot3":-5,"rot4":-25,"rot5":5,"rot6":15,"dil1":0.925,"dil2":0.975,"dil3":1.125,"dil4":0.875,"dil5":1.075,"dil6":1.025,"rots":[-15,25,-5,-25,5,15],"dils":[0.925,0.975,1.125,0.875,1.075,1.025],"loop_number":"NA","everTouched":null},{"id":"test","shape":"rightKite","outlier_type":3,"choice":3,"outlierPosition":5,"success":false,"majorityOfMostRegularShapes":true,"rt":5026.2000000002445,"rot1":5,"rot2":-15,"rot3":15,"rot4":-25,"rot5":-5,"rot6":25,"dil1":1.125,"dil2":0.975,"dil3":1.075,"dil4":0.925,"dil5":1.025,"dil6":0.875,"rots":[5,-15,15,-25,-5,25],"dils":[1.125,0.975,1.075,0.925,1.025,0.875],"loop_number":"NA","everTouched":null},{"id":"test","shape":"parallelogram","outlier_type":1,"choice":1,"outlierPosition":1,"success":true,"majorityOfMostRegularShapes":true,"rt":2674.1999999994296,"rot1":-25,"rot2":-15,"rot3":15,"rot4":25,"rot5":-5,"rot6":5,"dil1":0.875,"dil2":1.025,"dil3":1.125,"dil4":0.925,"dil5":0.975,"dil6":1.075,"rots":[-25,-15,15,25,-5,5],"dils":[0.875,1.025,1.125,0.925,0.975,1.075],"loop_number":"NA","everTouched":null},{"id":"test","shape":"square","outlier_type":2,"choice":5,"outlierPosition":5,"success":true,"majorityOfMostRegularShapes":true,"rt":2908.5999999988708,"rot1":-15,"rot2":15,"rot3":-25,"rot4":5,"rot5":-5,"rot6":25,"dil1":0.925,"dil2":1.125,"dil3":1.075,"dil4":0.875,"dil5":0.975,"dil6":1.025,"rots":[-15,15,-25,5,-5,25],"dils":[0.925,1.125,1.075,0.875,0.975,1.025],"loop_number":"NA","everTouched":null},{"id":"test","shape":"isoTrapezoid","outlier_type":1,"choice":5,"outlierPosition":5,"success":true,"majorityOfMostRegularShapes":true,"rt":4304.599999999453,"rot1":25,"rot2":-5,"rot3":15,"rot4":-15,"rot5":-25,"rot6":5,"dil1":0.925,"dil2":1.075,"dil3":1.025,"dil4":0.875,"dil5":0.975,"dil6":1.125,"rots":[25,-5,15,-15,-25,5],"dils":[0.925,1.075,1.025,0.875,0.975,1.125],"loop_number":"NA","everTouched":null},{"id":"test","shape":"random","outlier_type":2,"choice":4,"outlierPosition":0,"success":false,"majorityOfMostRegularShapes":true,"rt":3054.799999999872,"rot1":-25,"rot2":25,"rot3":15,"rot4":-5,"rot5":-15,"rot6":5,"dil1":1.125,"dil2":0.975,"dil3":0.925,"dil4":1.075,"dil5":0.875,"dil6":1.025,"rots":[-25,25,15,-5,-15,5],"dils":[1.125,0.975,0.925,1.075,0.875,1.025],"loop_number":"NA","everTouched":null},{"id":"test","shape":"parallelogram","outlier_type":0,"choice":4,"outlierPosition":4,"success":true,"majorityOfMostRegularShapes":true,"rt":5300.100000000384,"rot1":25,"rot2":-15,"rot3":-25,"rot4":5,"rot5":15,"rot6":-5,"dil1":1.025,"dil2":1.125,"dil3":1.075,"dil4":0.875,"dil5":0.925,"dil6":0.975,"rots":[25,-15,-25,5,15,-5],"dils":[1.025,1.125,1.075,0.875,0.925,0.975],"loop_number":"NA","everTouched":null},{"id":"test","shape":"rightKite","outlier_type":1,"choice":4,"outlierPosition":4,"success":true,"majorityOfMostRegularShapes":true,"rt":2889.500000001106,"rot1":-15,"rot2":25,"rot3":-5,"rot4":5,"rot5":-25,"rot6":15,"dil1":1.075,"dil2":1.025,"dil3":0.975,"dil4":0.875,"dil5":0.925,"dil6":1.125,"rots":[-15,25,-5,5,-25,15],"dils":[1.075,1.025,0.975,0.875,0.925,1.125],"loop_number":"NA","everTouched":null},{"id":"test","shape":"kite","outlier_type":1,"choice":5,"outlierPosition":5,"success":true,"majorityOfMostRegularShapes":true,"rt":5800.8999999983935,"rot1":25,"rot2":-5,"rot3":15,"rot4":-15,"rot5":-25,"rot6":5,"dil1":1.075,"dil2":0.925,"dil3":0.875,"dil4":0.975,"dil5":1.125,"dil6":1.025,"rots":[25,-5,15,-15,-25,5],"dils":[1.075,0.925,0.875,0.975,1.125,1.025],"loop_number":"NA","everTouched":null}],"desiredDistance":0.3,"trial_type":"oddball-grid","trial_index":3,"time_elapsed":511461,"internal_node_id":"0.0-3.0","ID":"mw2khozboy"},{"success":true,"trial_type":"fullscreen","trial_index":4,"time_elapsed":517111,"internal_node_id":"0.0-4.0","ID":"mw2khozboy"}]