[{"success":true,"trial_type":"fullscreen","trial_index":0,"time_elapsed":99017,"internal_node_id":"0.0-0.0","ID":"od0htb8x7g"},{"results":[{"id":"train-images","shape":"3","outlier_type":"NA","choice":5,"outlierPosition":5,"success":true,"majorityOfMostRegularShapes":"NA","rt":5519.099999997707,"rot1":-15,"rot2":25,"rot3":-5,"rot4":-25,"rot5":15,"rot6":5,"dil1":1.125,"dil2":1.025,"dil3":0.875,"dil4":0.925,"dil5":1.075,"dil6":0.975,"rots":[-15,25,-5,-25,15,5],"dils":[1.125,1.025,0.875,0.925,1.075,0.975],"loop_number":1,"everTouched":null},{"id":"train-images","shape":"9","outlier_type":"NA","choice":4,"outlierPosition":4,"success":true,"majorityOfMostRegularShapes":"NA","rt":4628.399999997782,"rot1":15,"rot2":-15,"rot3":-5,"rot4":5,"rot5":-25,"rot6":25,"dil1":1.075,"dil2":1.025,"dil3":1.125,"dil4":0.875,"dil5":0.975,"dil6":0.925,"rots":[15,-15,-5,5,-25,25],"dils":[1.075,1.025,1.125,0.875,0.975,0.925],"loop_number":1,"everTouched":null},{"id":"train-images","shape":"2","outlier_type":"NA","choice":3,"outlierPosition":3,"success":true,"majorityOfMostRegularShapes":"NA","rt":1595.1999999997497,"rot1":5,"rot2":-25,"rot3":25,"rot4":-5,"rot5":15,"rot6":-15,"dil1":0.875,"dil2":1.125,"dil3":0.925,"dil4":1.025,"dil5":0.975,"dil6":1.075,"rots":[5,-25,25,-5,15,-15],"dils":[0.875,1.125,0.925,1.025,0.975,1.075],"loop_number":1,"everTouched":null},{"id":"train-images","shape":"7","outlier_type":"NA","choice":3,"outlierPosition":3,"success":true,"majorityOfMostRegularShapes":"NA","rt":2699.9999999970896,"rot1":15,"rot2":25,"rot3":-15,"rot4":-5,"rot5":-25,"rot6":5,"dil1":0.875,"dil2":1.075,"dil3":0.925,"dil4":1.125,"dil5":1.025,"dil6":0.975,"rots":[15,25,-15,-5,-25,5],"dils":[0.875,1.075,0.925,1.125,1.025,0.975],"loop_number":1,"everTouched":null},{"id":"train-images","shape":"4","outlier_type":"NA","choice":4,"outlierPosition":4,"success":true,"majorityOfMostRegularShapes":"NA","rt":4450.100000001839,"rot1":5,"rot2":-25,"rot3":-5,"rot4":25,"rot5":-15,"rot6":15,"dil1":0.875,"dil2":1.075,"dil3":1.025,"dil4":0.975,"dil5":0.925,"dil6":1.125,"rots":[5,-25,-5,25,-15,15],"dils":[0.875,1.075,1.025,0.975,0.925,1.125],"loop_number":1,"everTouched":null},{"id":"train-images","shape":"8","outlier_type":"NA","choice":1,"outlierPosition":1,"success":true,"majorityOfMostRegularShapes":"NA","rt":3402.5000000001455,"rot1":-15,"rot2":-25,"rot3":25,"rot4":15,"rot5":5,"rot6":-5,"dil1":1.075,"dil2":1.025,"dil3":1.125,"dil4":0.875,"dil5":0.975,"dil6":0.925,"rots":[-15,-25,25,15,5,-5],"dils":[1.075,1.025,1.125,0.875,0.975,0.925],"loop_number":1,"everTouched":null},{"id":"train-images","shape":"10","outlier_type":"NA","choice":2,"outlierPosition":2,"success":true,"majorityOfMostRegularShapes":"NA","rt":2430.999999996857,"rot1":-25,"rot2":25,"rot3":5,"rot4":15,"rot5":-15,"rot6":-5,"dil1":1.125,"dil2":1.025,"dil3":0.925,"dil4":0.875,"dil5":1.075,"dil6":0.975,"rots":[-25,25,5,15,-15,-5],"dils":[1.125,1.025,0.925,0.875,1.075,0.975],"loop_number":1,"everTouched":null},{"id":"train-images","shape":"5","outlier_type":"NA","choice":2,"outlierPosition":2,"success":true,"majorityOfMostRegularShapes":"NA","rt":1937.900000000809,"rot1":-5,"rot2":-15,"rot3":-25,"rot4":15,"rot5":5,"rot6":25,"dil1":1.025,"dil2":0.875,"dil3":0.975,"dil4":1.075,"dil5":0.925,"dil6":1.125,"rots":[-5,-15,-25,15,5,25],"dils":[1.025,0.875,0.975,1.075,0.925,1.125],"loop_number":1,"everTouched":null},{"id":"train-images","shape":"6","outlier_type":"NA","choice":1,"outlierPosition":1,"success":true,"majorityOfMostRegularShapes":"NA","rt":1978.1999999977415,"rot1":-25,"rot2":-5,"rot3":-15,"rot4":15,"rot5":25,"rot6":5,"dil1":0.925,"dil2":1.025,"dil3":1.075,"dil4":0.975,"dil5":0.875,"dil6":1.125,"rots":[-25,-5,-15,15,25,5],"dils":[0.925,1.025,1.075,0.975,0.875,1.125],"loop_number":1,"everTouched":null},{"id":"train-images","shape":"1","outlier_type":"NA","choice":3,"outlierPosition":3,"success":true,"majorityOfMostRegularShapes":"NA","rt":1444.100000000617,"rot1":25,"rot2":15,"rot3":5,"rot4":-25,"rot5":-5,"rot6":-15,"dil1":1.125,"dil2":1.075,"dil3":0.975,"dil4":0.875,"dil5":1.025,"dil6":0.925,"rots":[25,15,5,-25,-5,-15],"dils":[1.125,1.075,0.975,0.875,1.025,0.925],"loop_number":1,"everTouched":null}],"trial_type":"oddball-grid-image","trial_index":1,"time_elapsed":157302,"internal_node_id":"0.0-1.0","ID":"od0htb8x7g"},{"results":[{"id":"train","shape":null,"outlier_type":null,"choice":4,"outlierPosition":4,"success":true,"majorityOfMostRegularShapes":null,"rt":2639.899999998306,"rot1":15,"rot2":5,"rot3":-25,"rot4":25,"rot5":-15,"rot6":-5,"dil1":1.125,"dil2":1.075,"dil3":0.925,"dil4":0.875,"dil5":0.975,"dil6":1.025,"rots":[15,5,-25,25,-15,-5],"dils":[1.125,1.075,0.925,0.875,0.975,1.025],"loop_number":1,"everTouched":null},{"id":"train","shape":null,"outlier_type":null,"choice":4,"outlierPosition":4,"success":true,"majorityOfMostRegularShapes":null,"rt":3175.5000000011933,"rot1":5,"rot2":-15,"rot3":25,"rot4":-5,"rot5":-25,"rot6":15,"dil1":1.025,"dil2":0.925,"dil3":0.875,"dil4":1.125,"dil5":0.975,"dil6":1.075,"rots":[5,-15,25,-5,-25,15],"dils":[1.025,0.925,0.875,1.125,0.975,1.075],"loop_number":1,"everTouched":null},{"id":"train","shape":null,"outlier_type":null,"choice":3,"outlierPosition":3,"success":true,"majorityOfMostRegularShapes":null,"rt":2925.8000000008906,"rot1":-25,"rot2":25,"rot3":-15,"rot4":5,"rot5":-5,"rot6":15,"dil1":0.925,"dil2":1.025,"dil3":1.075,"dil4":0.975,"dil5":1.125,"dil6":0.875,"rots":[-25,25,-15,5,-5,15],"dils":[0.925,1.025,1.075,0.975,1.125,0.875],"loop_number":1,"everTouched":null},{"id":"train","shape":null,"outlier_type":null,"choice":4,"outlierPosition":4,"success":true,"majorityOfMostRegularShapes":null,"rt":3096.800000002986,"rot1":-25,"rot2":-5,"rot3":5,"rot4":25,"rot5":15,"rot6":-15,"dil1":0.925,"dil2":1.025,"dil3":0.975,"dil4":1.125,"dil5":1.075,"dil6":0.875,"rots":[-25,-5,5,25,15,-15],"dils":[0.925,1.025,0.975,1.125,1.075,0.875],"loop_number":1,"everTouched":null},{"id":"train","shape":null,"outlier_type":null,"choice":3,"outlierPosition":3,"success":true,"majorityOfMostRegularShapes":null,"rt":2877.100000001519,"rot1":-5,"rot2":15,"rot3":5,"rot4":25,"rot5":-15,"rot6":-25,"dil1":1.125,"dil2":0.975,"dil3":1.025,"dil4":1.075,"dil5":0.875,"dil6":0.925,"rots":[-5,15,5,25,-15,-25],"dils":[1.125,0.975,1.025,1.075,0.875,0.925],"loop_number":1,"everTouched":null},{"id":"train","shape":null,"outlier_type":null,"choice":2,"outlierPosition":2,"success":true,"majorityOfMostRegularShapes":null,"rt":4126.899999999296,"rot1":-5,"rot2":-25,"rot3":5,"rot4":-15,"rot5":15,"rot6":25,"dil1":0.975,"dil2":0.875,"dil3":1.025,"dil4":1.125,"dil5":1.075,"dil6":0.925,"rots":[-5,-25,5,-15,15,25],"dils":[0.975,0.875,1.025,1.125,1.075,0.925],"loop_number":1,"everTouched":null}],"desiredDistance":0.3,"trial_type":"oddball-grid-easy","trial_index":2,"time_elapsed":187372,"internal_node_id":"0.0-2.0","ID":"od0htb8x7g"},{"results":[{"id":"test","shape":"square","outlier_type":3,"choice":2,"outlierPosition":2,"success":true,"majorityOfMostRegularShapes":true,"rt":2590.8999999992375,"rot1":-15,"rot2":-5,"rot3":5,"rot4":-25,"rot5":25,"rot6":15,"dil1":1.075,"dil2":0.975,"dil3":1.125,"dil4":1.025,"dil5":0.875,"dil6":0.925,"rots":[-15,-5,5,-25,25,15],"dils":[1.075,0.975,1.125,1.025,0.875,0.925],"loop_number":"NA","everTouched":null},{"id":"test","shape":"losange","outlier_type":1,"choice":1,"outlierPosition":1,"success":true,"majorityOfMostRegularShapes":true,"rt":3741.5000000000873,"rot1":-25,"rot2":-5,"rot3":15,"rot4":5,"rot5":-15,"rot6":25,"dil1":0.925,"dil2":1.125,"dil3":1.075,"dil4":0.875,"dil5":0.975,"dil6":1.025,"rots":[-25,-5,15,5,-15,25],"dils":[0.925,1.125,1.075,0.875,0.975,1.025],"loop_number":"NA","everTouched":null},{"id":"test","shape":"trapezoid","outlier_type":2,"choice":5,"outlierPosition":5,"success":true,"majorityOfMostRegularShapes":true,"rt":10605.70000000007,"rot1":5,"rot2":-5,"rot3":-15,"rot4":25,"rot5":-25,"rot6":15,"dil1":0.875,"dil2":1.125,"dil3":0.975,"dil4":1.075,"dil5":1.025,"dil6":0.925,"rots":[5,-5,-15,25,-25,15],"dils":[0.875,1.125,0.975,1.075,1.025,0.925],"loop_number":"NA","everTouched":null},{"id":"test","shape":"parallelogram","outlier_type":3,"choice":2,"outlierPosition":2,"success":true,"majorityOfMostRegularShapes":true,"rt":4409.900000002381,"rot1":5,"rot2":15,"rot3":-15,"rot4":25,"rot5":-5,"rot6":-25,"dil1":1.075,"dil2":0.925,"dil3":1.025,"dil4":0.975,"dil5":0.875,"dil6":1.125,"rots":[5,15,-15,25,-5,-25],"dils":[1.075,0.925,1.025,0.975,0.875,1.125],"loop_number":"NA","everTouched":null},{"id":"test","shape":"rightKite","outlier_type":2,"choice":5,"outlierPosition":5,"success":true,"majorityOfMostRegularShapes":true,"rt":13087.100000000646,"rot1":5,"rot2":25,"rot3":-25,"rot4":-5,"rot5":-15,"rot6":15,"dil1":1.125,"dil2":1.075,"dil3":0.925,"dil4":0.875,"dil5":0.975,"dil6":1.025,"rots":[5,25,-25,-5,-15,15],"dils":[1.125,1.075,0.925,0.875,0.975,1.025],"loop_number":"NA","everTouched":null},{"id":"test","shape":"random","outlier_type":0,"choice":4,"outlierPosition":1,"success":false,"majorityOfMostRegularShapes":true,"rt":9237.700000001496,"rot1":5,"rot2":-25,"rot3":15,"rot4":-5,"rot5":-15,"rot6":25,"dil1":1.025,"dil2":0.925,"dil3":1.125,"dil4":1.075,"dil5":0.875,"dil6":0.975,"rots":[5,-25,15,-5,-15,25],"dils":[1.025,0.925,1.125,1.075,0.875,0.975],"loop_number":"NA","everTouched":null},{"id":"test","shape":"isoTrapezoid","outlier_type":3,"choice":1,"outlierPosition":2,"success":false,"majorityOfMostRegularShapes":true,"rt":45460.99999999936,"rot1":25,"rot2":15,"rot3":-5,"rot4":5,"rot5":-25,"rot6":-15,"dil1":0.875,"dil2":1.075,"dil3":0.975,"dil4":1.025,"dil5":1.125,"dil6":0.925,"rots":[25,15,-5,5,-25,-15],"dils":[0.875,1.075,0.975,1.025,1.125,0.925],"loop_number":"NA","everTouched":null},{"id":"test","shape":"square","outlier_type":1,"choice":2,"outlierPosition":2,"success":true,"majorityOfMostRegularShapes":true,"rt":2787.2999999999884,"rot1":-25,"rot2":-15,"rot3":5,"rot4":-5,"rot5":15,"rot6":25,"dil1":0.975,"dil2":1.125,"dil3":1.075,"dil4":1.025,"dil5":0.875,"dil6":0.925,"rots":[-25,-15,5,-5,15,25],"dils":[0.975,1.125,1.075,1.025,0.875,0.925],"loop_number":"NA","everTouched":null},{"id":"test","shape":"rectangle","outlier_type":2,"choice":3,"outlierPosition":3,"success":true,"majorityOfMostRegularShapes":true,"rt":2584.1999999975087,"rot1":5,"rot2":-5,"rot3":-25,"rot4":15,"rot5":-15,"rot6":25,"dil1":0.975,"dil2":1.025,"dil3":1.075,"dil4":0.875,"dil5":0.925,"dil6":1.125,"rots":[5,-5,-25,15,-15,25],"dils":[0.975,1.025,1.075,0.875,0.925,1.125],"loop_number":"NA","everTouched":null},{"id":"test","shape":"square","outlier_type":0,"choice":1,"outlierPosition":1,"success":true,"majorityOfMostRegularShapes":true,"rt":3923.8000000005122,"rot1":5,"rot2":15,"rot3":25,"rot4":-15,"rot5":-5,"rot6":-25,"dil1":0.875,"dil2":1.025,"dil3":1.075,"dil4":1.125,"dil5":0.925,"dil6":0.975,"rots":[5,15,25,-15,-5,-25],"dils":[0.875,1.025,1.075,1.125,0.925,0.975],"loop_number":"NA","everTouched":null},{"id":"test","shape":"rustedHinge","outlier_type":1,"choice":3,"outlierPosition":3,"success":true,"majorityOfMostRegularShapes":true,"rt":6210.9999999993015,"rot1":15,"rot2":-25,"rot3":-15,"rot4":-5,"rot5":5,"rot6":25,"dil1":1.125,"dil2":1.025,"dil3":1.075,"dil4":0.875,"dil5":0.975,"dil6":0.925,"rots":[15,-25,-15,-5,5,25],"dils":[1.125,1.025,1.075,0.875,0.975,0.925],"loop_number":"NA","everTouched":null},{"id":"test","shape":"rightKite","outlier_type":3,"choice":5,"outlierPosition":0,"success":false,"majorityOfMostRegularShapes":true,"rt":13438.299999997951,"rot1":-15,"rot2":-5,"rot3":25,"rot4":15,"rot5":5,"rot6":-25,"dil1":0.925,"dil2":0.975,"dil3":1.075,"dil4":1.125,"dil5":0.875,"dil6":1.025,"rots":[-15,-5,25,15,5,-25],"dils":[0.925,0.975,1.075,1.125,0.875,1.025],"loop_number":"NA","everTouched":null},{"id":"test","shape":"losange","outlier_type":0,"choice":0,"outlierPosition":1,"success":false,"majorityOfMostRegularShapes":true,"rt":1405.0999999999185,"rot1":25,"rot2":5,"rot3":-25,"rot4":-5,"rot5":15,"rot6":-15,"dil1":0.925,"dil2":0.875,"dil3":1.075,"dil4":1.025,"dil5":1.125,"dil6":0.975,"rots":[25,5,-25,-5,15,-15],"dils":[0.925,0.875,1.075,1.025,1.125,0.975],"loop_number":"NA","everTouched":null},{"id":"test","shape":"kite","outlier_type":3,"choice":3,"outlierPosition":3,"success":true,"majorityOfMostRegularShapes":true,"rt":1769.0000000002328,"rot1":15,"rot2":-15,"rot3":5,"rot4":-5,"rot5":-25,"rot6":25,"dil1":1.075,"dil2":1.125,"dil3":0.975,"dil4":0.875,"dil5":1.025,"dil6":0.925,"rots":[15,-15,5,-5,-25,25],"dils":[1.075,1.125,0.975,0.875,1.025,0.925],"loop_number":"NA","everTouched":null},{"id":"test","shape":"parallelogram","outlier_type":2,"choice":3,"outlierPosition":3,"success":true,"majorityOfMostRegularShapes":true,"rt":3362.9000000001397,"rot1":-15,"rot2":25,"rot3":15,"rot4":-5,"rot5":5,"rot6":-25,"dil1":0.925,"dil2":1.075,"dil3":0.975,"dil4":0.875,"dil5":1.125,"dil6":1.025,"rots":[-15,25,15,-5,5,-25],"dils":[0.925,1.075,0.975,0.875,1.125,1.025],"loop_number":"NA","everTouched":null},{"id":"test","shape":"kite","outlier_type":0,"choice":2,"outlierPosition":3,"success":false,"majorityOfMostRegularShapes":true,"rt":12517.29999999958,"rot1":5,"rot2":-15,"rot3":15,"rot4":-25,"rot5":25,"rot6":-5,"dil1":1.075,"dil2":0.925,"dil3":0.875,"dil4":1.125,"dil5":0.975,"dil6":1.025,"rots":[5,-15,15,-25,25,-5],"dils":[1.075,0.925,0.875,1.125,0.975,1.025],"loop_number":"NA","everTouched":null},{"id":"test","shape":"parallelogram","outlier_type":1,"choice":0,"outlierPosition":0,"success":true,"majorityOfMostRegularShapes":true,"rt":7837.499999997846,"rot1":5,"rot2":-5,"rot3":15,"rot4":-25,"rot5":-15,"rot6":25,"dil1":0.975,"dil2":1.125,"dil3":1.025,"dil4":0.875,"dil5":0.925,"dil6":1.075,"rots":[5,-5,15,-25,-15,25],"dils":[0.975,1.125,1.025,0.875,0.925,1.075],"loop_number":"NA","everTouched":null},{"id":"test","shape":"trapezoid","outlier_type":3,"choice":1,"outlierPosition":4,"success":false,"majorityOfMostRegularShapes":true,"rt":6115.200000000186,"rot1":5,"rot2":15,"rot3":-5,"rot4":-15,"rot5":25,"rot6":-25,"dil1":0.975,"dil2":0.925,"dil3":1.075,"dil4":1.125,"dil5":1.025,"dil6":0.875,"rots":[5,15,-5,-15,25,-25],"dils":[0.975,0.925,1.075,1.125,1.025,0.875],"loop_number":"NA","everTouched":null},{"id":"test","shape":"rectangle","outlier_type":0,"choice":0,"outlierPosition":0,"success":true,"majorityOfMostRegularShapes":true,"rt":4033.899999998568,"rot1":-5,"rot2":5,"rot3":15,"rot4":-15,"rot5":-25,"rot6":25,"dil1":0.925,"dil2":0.875,"dil3":0.975,"dil4":1.125,"dil5":1.025,"dil6":1.075,"rots":[-5,5,15,-15,-25,25],"dils":[0.925,0.875,0.975,1.125,1.025,1.075],"loop_number":"NA","everTouched":null},{"id":"test","shape":"rustedHinge","outlier_type":3,"choice":3,"outlierPosition":3,"success":true,"majorityOfMostRegularShapes":true,"rt":17653.300000001793,"rot1":-5,"rot2":-15,"rot3":5,"rot4":15,"rot5":25,"rot6":-25,"dil1":0.875,"dil2":1.075,"dil3":1.025,"dil4":1.125,"dil5":0.975,"dil6":0.925,"rots":[-5,-15,5,15,25,-25],"dils":[0.875,1.075,1.025,1.125,0.975,0.925],"loop_number":"NA","everTouched":null},{"id":"test","shape":"rectangle","outlier_type":1,"choice":4,"outlierPosition":4,"success":true,"majorityOfMostRegularShapes":true,"rt":2625.7000000004773,"rot1":-5,"rot2":-15,"rot3":-25,"rot4":15,"rot5":25,"rot6":5,"dil1":1.125,"dil2":0.925,"dil3":1.025,"dil4":0.975,"dil5":0.875,"dil6":1.075,"rots":[-5,-15,-25,15,25,5],"dils":[1.125,0.925,1.025,0.975,0.875,1.075],"loop_number":"NA","everTouched":null},{"id":"test","shape":"isoTrapezoid","outlier_type":0,"choice":3,"outlierPosition":3,"success":true,"majorityOfMostRegularShapes":true,"rt":21520.599999999802,"rot1":-25,"rot2":5,"rot3":-5,"rot4":25,"rot5":-15,"rot6":15,"dil1":0.925,"dil2":0.875,"dil3":0.975,"dil4":1.025,"dil5":1.125,"dil6":1.075,"rots":[-25,5,-5,25,-15,15],"dils":[0.925,0.875,0.975,1.025,1.125,1.075],"loop_number":"NA","everTouched":null},{"id":"test","shape":"trapezoid","outlier_type":1,"choice":2,"outlierPosition":2,"success":true,"majorityOfMostRegularShapes":true,"rt":18468.400000001595,"rot1":-5,"rot2":5,"rot3":25,"rot4":-15,"rot5":-25,"rot6":15,"dil1":1.025,"dil2":1.125,"dil3":0.875,"dil4":0.975,"dil5":1.075,"dil6":0.925,"rots":[-5,5,25,-15,-25,15],"dils":[1.025,1.125,0.875,0.975,1.075,0.925],"loop_number":"NA","everTouched":null},{"id":"test","shape":"losange","outlier_type":2,"choice":3,"outlierPosition":3,"success":true,"majorityOfMostRegularShapes":true,"rt":2919.90000000078,"rot1":-15,"rot2":-25,"rot3":-5,"rot4":15,"rot5":25,"rot6":5,"dil1":0.975,"dil2":1.075,"dil3":0.925,"dil4":0.875,"dil5":1.025,"dil6":1.125,"rots":[-15,-25,-5,15,25,5],"dils":[0.975,1.075,0.925,0.875,1.025,1.125],"loop_number":"NA","everTouched":null},{"id":"test","shape":"rustedHinge","outlier_type":0,"choice":2,"outlierPosition":2,"success":true,"majorityOfMostRegularShapes":true,"rt":9234.600000003353,"rot1":-15,"rot2":15,"rot3":-25,"rot4":-5,"rot5":25,"rot6":5,"dil1":0.975,"dil2":1.125,"dil3":0.925,"dil4":1.075,"dil5":1.025,"dil6":0.875,"rots":[-15,15,-25,-5,25,5],"dils":[0.975,1.125,0.925,1.075,1.025,0.875],"loop_number":"NA","everTouched":null},{"id":"test","shape":"random","outlier_type":2,"choice":0,"outlierPosition":3,"success":false,"majorityOfMostRegularShapes":true,"rt":10180.199999998847,"rot1":-25,"rot2":-5,"rot3":-15,"rot4":25,"rot5":5,"rot6":15,"dil1":1.025,"dil2":0.875,"dil3":1.125,"dil4":0.925,"dil5":0.975,"dil6":1.075,"rots":[-25,-5,-15,25,5,15],"dils":[1.025,0.875,1.125,0.925,0.975,1.075],"loop_number":"NA","everTouched":null},{"id":"test","shape":"hinge","outlier_type":3,"choice":3,"outlierPosition":4,"success":false,"majorityOfMostRegularShapes":true,"rt":1788.5999999998603,"rot1":-25,"rot2":5,"rot3":25,"rot4":-5,"rot5":-15,"rot6":15,"dil1":0.925,"dil2":0.975,"dil3":1.025,"dil4":0.875,"dil5":1.075,"dil6":1.125,"rots":[-25,5,25,-5,-15,15],"dils":[0.925,0.975,1.025,0.875,1.075,1.125],"loop_number":"NA","everTouched":null},{"id":"test","shape":"kite","outlier_type":2,"choice":1,"outlierPosition":5,"success":false,"majorityOfMostRegularShapes":true,"rt":1432.1000000018394,"rot1":25,"rot2":-25,"rot3":5,"rot4":-5,"rot5":15,"rot6":-15,"dil1":1.025,"dil2":0.975,"dil3":0.875,"dil4":1.125,"dil5":1.075,"dil6":0.925,"rots":[25,-25,5,-5,15,-15],"dils":[1.025,0.975,0.875,1.125,1.075,0.925],"loop_number":"NA","everTouched":null},{"id":"test","shape":"parallelogram","outlier_type":0,"choice":1,"outlierPosition":0,"success":false,"majorityOfMostRegularShapes":true,"rt":43070.49999999802,"rot1":-15,"rot2":15,"rot3":5,"rot4":25,"rot5":-25,"rot6":-5,"dil1":0.875,"dil2":0.975,"dil3":1.125,"dil4":0.925,"dil5":1.025,"dil6":1.075,"rots":[-15,15,5,25,-25,-5],"dils":[0.875,0.975,1.125,0.925,1.025,1.075],"loop_number":"NA","everTouched":null},{"id":"test","shape":"kite","outlier_type":1,"choice":2,"outlierPosition":1,"success":false,"majorityOfMostRegularShapes":true,"rt":2883.299999997602,"rot1":-5,"rot2":5,"rot3":-25,"rot4":15,"rot5":25,"rot6":-15,"dil1":1.025,"dil2":0.975,"dil3":0.925,"dil4":1.075,"dil5":0.875,"dil6":1.125,"rots":[-5,5,-25,15,25,-15],"dils":[1.025,0.975,0.925,1.075,0.875,1.125],"loop_number":"NA","everTouched":null},{"id":"test","shape":"random","outlier_type":3,"choice":0,"outlierPosition":4,"success":false,"majorityOfMostRegularShapes":true,"rt":2256.699999998091,"rot1":15,"rot2":-25,"rot3":-5,"rot4":25,"rot5":-15,"rot6":5,"dil1":0.925,"dil2":1.025,"dil3":0.975,"dil4":0.875,"dil5":1.125,"dil6":1.075,"rots":[15,-25,-5,25,-15,5],"dils":[0.925,1.025,0.975,0.875,1.125,1.075],"loop_number":"NA","everTouched":null},{"id":"test","shape":"rightKite","outlier_type":1,"choice":5,"outlierPosition":5,"success":true,"majorityOfMostRegularShapes":true,"rt":11729.300000002724,"rot1":25,"rot2":-15,"rot3":5,"rot4":-5,"rot5":15,"rot6":-25,"dil1":1.075,"dil2":0.975,"dil3":0.925,"dil4":0.875,"dil5":1.125,"dil6":1.025,"rots":[25,-15,5,-5,15,-25],"dils":[1.075,0.975,0.925,0.875,1.125,1.025],"loop_number":"NA","everTouched":null},{"id":"test","shape":"isoTrapezoid","outlier_type":2,"choice":3,"outlierPosition":3,"success":true,"majorityOfMostRegularShapes":true,"rt":6413.700000000885,"rot1":25,"rot2":5,"rot3":15,"rot4":-25,"rot5":-15,"rot6":-5,"dil1":0.925,"dil2":0.975,"dil3":1.075,"dil4":1.025,"dil5":1.125,"dil6":0.875,"rots":[25,5,15,-25,-15,-5],"dils":[0.925,0.975,1.075,1.025,1.125,0.875],"loop_number":"NA","everTouched":null},{"id":"test","shape":"hinge","outlier_type":1,"choice":2,"outlierPosition":2,"success":true,"majorityOfMostRegularShapes":true,"rt":12073.499999998603,"rot1":15,"rot2":-25,"rot3":5,"rot4":25,"rot5":-5,"rot6":-15,"dil1":0.875,"dil2":1.075,"dil3":0.925,"dil4":0.975,"dil5":1.125,"dil6":1.025,"rots":[15,-25,5,25,-5,-15],"dils":[0.875,1.075,0.925,0.975,1.125,1.025],"loop_number":"NA","everTouched":null},{"id":"test","shape":"rightKite","outlier_type":0,"choice":1,"outlierPosition":1,"success":true,"majorityOfMostRegularShapes":true,"rt":16480.70000000007,"rot1":-15,"rot2":5,"rot3":25,"rot4":-25,"rot5":15,"rot6":-5,"dil1":1.025,"dil2":0.975,"dil3":1.075,"dil4":0.925,"dil5":0.875,"dil6":1.125,"rots":[-15,5,25,-25,15,-5],"dils":[1.025,0.975,1.075,0.925,0.875,1.125],"loop_number":"NA","everTouched":null},{"id":"test","shape":"isoTrapezoid","outlier_type":1,"choice":5,"outlierPosition":5,"success":true,"majorityOfMostRegularShapes":true,"rt":12036.599999999395,"rot1":-25,"rot2":15,"rot3":5,"rot4":25,"rot5":-15,"rot6":-5,"dil1":0.875,"dil2":0.975,"dil3":1.125,"dil4":0.925,"dil5":1.025,"dil6":1.075,"rots":[-25,15,5,25,-15,-5],"dils":[0.875,0.975,1.125,0.925,1.025,1.075],"loop_number":"NA","everTouched":null},{"id":"test","shape":"hinge","outlier_type":0,"choice":4,"outlierPosition":0,"success":false,"majorityOfMostRegularShapes":true,"rt":15713.299999999464,"rot1":-15,"rot2":25,"rot3":15,"rot4":5,"rot5":-25,"rot6":-5,"dil1":0.925,"dil2":1.025,"dil3":0.875,"dil4":1.125,"dil5":0.975,"dil6":1.075,"rots":[-15,25,15,5,-25,-5],"dils":[0.925,1.025,0.875,1.125,0.975,1.075],"loop_number":"NA","everTouched":null},{"id":"test","shape":"square","outlier_type":2,"choice":3,"outlierPosition":3,"success":true,"majorityOfMostRegularShapes":true,"rt":3204.499999999767,"rot1":25,"rot2":-25,"rot3":-15,"rot4":5,"rot5":-5,"rot6":15,"dil1":0.925,"dil2":1.025,"dil3":0.975,"dil4":0.875,"dil5":1.075,"dil6":1.125,"rots":[25,-25,-15,5,-5,15],"dils":[0.925,1.025,0.975,0.875,1.075,1.125],"loop_number":"NA","everTouched":null},{"id":"test","shape":"rectangle","outlier_type":3,"choice":3,"outlierPosition":3,"success":true,"majorityOfMostRegularShapes":true,"rt":4905.099999999977,"rot1":-25,"rot2":-15,"rot3":-5,"rot4":15,"rot5":25,"rot6":5,"dil1":0.925,"dil2":1.125,"dil3":0.875,"dil4":1.025,"dil5":0.975,"dil6":1.075,"rots":[-25,-15,-5,15,25,5],"dils":[0.925,1.125,0.875,1.025,0.975,1.075],"loop_number":"NA","everTouched":null},{"id":"test","shape":"trapezoid","outlier_type":0,"choice":2,"outlierPosition":5,"success":false,"majorityOfMostRegularShapes":true,"rt":27107.299999999697,"rot1":15,"rot2":-5,"rot3":5,"rot4":-15,"rot5":25,"rot6":-25,"dil1":0.875,"dil2":0.975,"dil3":1.025,"dil4":0.925,"dil5":1.075,"dil6":1.125,"rots":[15,-5,5,-15,25,-25],"dils":[0.875,0.975,1.025,0.925,1.075,1.125],"loop_number":"NA","everTouched":null},{"id":"test","shape":"losange","outlier_type":3,"choice":2,"outlierPosition":2,"success":true,"majorityOfMostRegularShapes":true,"rt":3730.199999998091,"rot1":5,"rot2":25,"rot3":-15,"rot4":15,"rot5":-5,"rot6":-25,"dil1":1.125,"dil2":0.875,"dil3":1.025,"dil4":1.075,"dil5":0.975,"dil6":0.925,"rots":[5,25,-15,15,-5,-25],"dils":[1.125,0.875,1.025,1.075,0.975,0.925],"loop_number":"NA","everTouched":null},{"id":"test","shape":"hinge","outlier_type":2,"choice":4,"outlierPosition":4,"success":true,"majorityOfMostRegularShapes":true,"rt":23057.39999999781,"rot1":25,"rot2":-25,"rot3":-5,"rot4":-15,"rot5":5,"rot6":15,"dil1":0.875,"dil2":0.975,"dil3":1.075,"dil4":1.025,"dil5":1.125,"dil6":0.925,"rots":[25,-25,-5,-15,5,15],"dils":[0.875,0.975,1.075,1.025,1.125,0.925],"loop_number":"NA","everTouched":null},{"id":"test","shape":"random","outlier_type":1,"choice":4,"outlierPosition":4,"success":true,"majorityOfMostRegularShapes":true,"rt":3108.1000000013737,"rot1":-5,"rot2":5,"rot3":-25,"rot4":15,"rot5":25,"rot6":-15,"dil1":1.025,"dil2":0.875,"dil3":1.125,"dil4":0.925,"dil5":1.075,"dil6":0.975,"rots":[-5,5,-25,15,25,-15],"dils":[1.025,0.875,1.125,0.925,1.075,0.975],"loop_number":"NA","everTouched":null},{"id":"test","shape":"rustedHinge","outlier_type":2,"choice":0,"outlierPosition":0,"success":true,"majorityOfMostRegularShapes":true,"rt":4683.700000001467,"rot1":-15,"rot2":25,"rot3":15,"rot4":5,"rot5":-25,"rot6":-5,"dil1":0.875,"dil2":0.925,"dil3":1.025,"dil4":1.125,"dil5":1.075,"dil6":0.975,"rots":[-15,25,15,5,-25,-5],"dils":[0.875,0.925,1.025,1.125,1.075,0.975],"loop_number":"NA","everTouched":null}],"desiredDistance":0.3,"trial_type":"oddball-grid","trial_index":3,"time_elapsed":709986,"internal_node_id":"0.0-3.0","ID":"od0htb8x7g"},{"success":true,"trial_type":"fullscreen","trial_index":4,"time_elapsed":720426,"internal_node_id":"0.0-4.0","ID":"od0htb8x7g"}]