[{"success":true,"trial_type":"fullscreen","trial_index":0,"time_elapsed":106757,"internal_node_id":"0.0-0.0","ID":"ujx6ub6asv"},{"results":[{"id":"train-images","shape":"8","outlier_type":"NA","choice":1,"outlierPosition":1,"success":true,"majorityOfMostRegularShapes":"NA","rt":7103.699999999662,"rot1":-5,"rot2":-25,"rot3":5,"rot4":15,"rot5":-15,"rot6":25,"dil1":1.125,"dil2":0.925,"dil3":0.875,"dil4":0.975,"dil5":1.075,"dil6":1.025,"rots":[-5,-25,5,15,-15,25],"dils":[1.125,0.925,0.875,0.975,1.075,1.025],"loop_number":1,"everTouched":null},{"id":"train-images","shape":"5","outlier_type":"NA","choice":4,"outlierPosition":4,"success":true,"majorityOfMostRegularShapes":"NA","rt":3268.000000000029,"rot1":25,"rot2":5,"rot3":-5,"rot4":-25,"rot5":15,"rot6":-15,"dil1":0.925,"dil2":0.875,"dil3":0.975,"dil4":1.025,"dil5":1.125,"dil6":1.075,"rots":[25,5,-5,-25,15,-15],"dils":[0.925,0.875,0.975,1.025,1.125,1.075],"loop_number":1,"everTouched":null},{"id":"train-images","shape":"9","outlier_type":"NA","choice":2,"outlierPosition":2,"success":true,"majorityOfMostRegularShapes":"NA","rt":1884.5000000001164,"rot1":-15,"rot2":15,"rot3":25,"rot4":5,"rot5":-25,"rot6":-5,"dil1":1.125,"dil2":1.075,"dil3":1.025,"dil4":0.975,"dil5":0.925,"dil6":0.875,"rots":[-15,15,25,5,-25,-5],"dils":[1.125,1.075,1.025,0.975,0.925,0.875],"loop_number":1,"everTouched":null},{"id":"train-images","shape":"6","outlier_type":"NA","choice":2,"outlierPosition":2,"success":true,"majorityOfMostRegularShapes":"NA","rt":2443.299999998999,"rot1":5,"rot2":-15,"rot3":15,"rot4":25,"rot5":-25,"rot6":-5,"dil1":0.925,"dil2":0.975,"dil3":0.875,"dil4":1.125,"dil5":1.025,"dil6":1.075,"rots":[5,-15,15,25,-25,-5],"dils":[0.925,0.975,0.875,1.125,1.025,1.075],"loop_number":1,"everTouched":null},{"id":"train-images","shape":"1","outlier_type":"NA","choice":0,"outlierPosition":0,"success":true,"majorityOfMostRegularShapes":"NA","rt":2669.399999998859,"rot1":-5,"rot2":-15,"rot3":5,"rot4":-25,"rot5":15,"rot6":25,"dil1":0.975,"dil2":1.025,"dil3":0.875,"dil4":1.075,"dil5":1.125,"dil6":0.925,"rots":[-5,-15,5,-25,15,25],"dils":[0.975,1.025,0.875,1.075,1.125,0.925],"loop_number":1,"everTouched":null},{"id":"train-images","shape":"10","outlier_type":"NA","choice":3,"outlierPosition":3,"success":true,"majorityOfMostRegularShapes":"NA","rt":2466.899999999441,"rot1":-25,"rot2":25,"rot3":15,"rot4":-5,"rot5":5,"rot6":-15,"dil1":1.125,"dil2":1.075,"dil3":0.875,"dil4":0.925,"dil5":0.975,"dil6":1.025,"rots":[-25,25,15,-5,5,-15],"dils":[1.125,1.075,0.875,0.925,0.975,1.025],"loop_number":1,"everTouched":null},{"id":"train-images","shape":"2","outlier_type":"NA","choice":3,"outlierPosition":3,"success":true,"majorityOfMostRegularShapes":"NA","rt":1643.899999999121,"rot1":15,"rot2":-15,"rot3":25,"rot4":-5,"rot5":-25,"rot6":5,"dil1":1.025,"dil2":0.925,"dil3":0.975,"dil4":1.125,"dil5":1.075,"dil6":0.875,"rots":[15,-15,25,-5,-25,5],"dils":[1.025,0.925,0.975,1.125,1.075,0.875],"loop_number":1,"everTouched":null},{"id":"train-images","shape":"3","outlier_type":"NA","choice":4,"outlierPosition":4,"success":true,"majorityOfMostRegularShapes":"NA","rt":3160.4000000006636,"rot1":25,"rot2":-25,"rot3":15,"rot4":5,"rot5":-5,"rot6":-15,"dil1":1.125,"dil2":0.875,"dil3":1.025,"dil4":0.925,"dil5":1.075,"dil6":0.975,"rots":[25,-25,15,5,-5,-15],"dils":[1.125,0.875,1.025,0.925,1.075,0.975],"loop_number":1,"everTouched":null},{"id":"train-images","shape":"4","outlier_type":"NA","choice":0,"outlierPosition":0,"success":true,"majorityOfMostRegularShapes":"NA","rt":2028.600000001461,"rot1":25,"rot2":-5,"rot3":5,"rot4":-25,"rot5":15,"rot6":-15,"dil1":1.125,"dil2":0.875,"dil3":0.975,"dil4":1.075,"dil5":0.925,"dil6":1.025,"rots":[25,-5,5,-25,15,-15],"dils":[1.125,0.875,0.975,1.075,0.925,1.025],"loop_number":1,"everTouched":null},{"id":"train-images","shape":"7","outlier_type":"NA","choice":3,"outlierPosition":3,"success":true,"majorityOfMostRegularShapes":"NA","rt":1325.8999999998196,"rot1":15,"rot2":-5,"rot3":-25,"rot4":5,"rot5":-15,"rot6":25,"dil1":1.025,"dil2":1.075,"dil3":0.875,"dil4":1.125,"dil5":0.975,"dil6":0.925,"rots":[15,-5,-25,5,-15,25],"dils":[1.025,1.075,0.875,1.125,0.975,0.925],"loop_number":1,"everTouched":null}],"trial_type":"oddball-grid-image","trial_index":1,"time_elapsed":184109,"internal_node_id":"0.0-1.0","ID":"ujx6ub6asv"},{"results":[{"id":"train","shape":null,"outlier_type":null,"choice":0,"outlierPosition":0,"success":true,"majorityOfMostRegularShapes":null,"rt":2614.1000000025088,"rot1":-5,"rot2":-15,"rot3":-25,"rot4":15,"rot5":5,"rot6":25,"dil1":1.125,"dil2":0.975,"dil3":0.925,"dil4":0.875,"dil5":1.025,"dil6":1.075,"rots":[-5,-15,-25,15,5,25],"dils":[1.125,0.975,0.925,0.875,1.025,1.075],"loop_number":1,"everTouched":null},{"id":"train","shape":null,"outlier_type":null,"choice":3,"outlierPosition":3,"success":true,"majorityOfMostRegularShapes":null,"rt":3985.7000000010885,"rot1":25,"rot2":15,"rot3":-5,"rot4":5,"rot5":-15,"rot6":-25,"dil1":0.925,"dil2":1.075,"dil3":0.875,"dil4":1.025,"dil5":0.975,"dil6":1.125,"rots":[25,15,-5,5,-15,-25],"dils":[0.925,1.075,0.875,1.025,0.975,1.125],"loop_number":1,"everTouched":null},{"id":"train","shape":null,"outlier_type":null,"choice":5,"outlierPosition":5,"success":true,"majorityOfMostRegularShapes":null,"rt":2472.0999999990454,"rot1":-15,"rot2":-5,"rot3":15,"rot4":-25,"rot5":5,"rot6":25,"dil1":0.975,"dil2":0.925,"dil3":0.875,"dil4":1.125,"dil5":1.025,"dil6":1.075,"rots":[-15,-5,15,-25,5,25],"dils":[0.975,0.925,0.875,1.125,1.025,1.075],"loop_number":1,"everTouched":null},{"id":"train","shape":null,"outlier_type":null,"choice":1,"outlierPosition":1,"success":true,"majorityOfMostRegularShapes":null,"rt":1615.4999999998836,"rot1":25,"rot2":-25,"rot3":-5,"rot4":5,"rot5":-15,"rot6":15,"dil1":1.075,"dil2":1.025,"dil3":0.975,"dil4":0.925,"dil5":1.125,"dil6":0.875,"rots":[25,-25,-5,5,-15,15],"dils":[1.075,1.025,0.975,0.925,1.125,0.875],"loop_number":1,"everTouched":null},{"id":"train","shape":null,"outlier_type":null,"choice":5,"outlierPosition":5,"success":true,"majorityOfMostRegularShapes":null,"rt":1886.899999997695,"rot1":-15,"rot2":-5,"rot3":25,"rot4":5,"rot5":15,"rot6":-25,"dil1":1.025,"dil2":0.925,"dil3":0.975,"dil4":1.125,"dil5":1.075,"dil6":0.875,"rots":[-15,-5,25,5,15,-25],"dils":[1.025,0.925,0.975,1.125,1.075,0.875],"loop_number":1,"everTouched":null},{"id":"train","shape":null,"outlier_type":null,"choice":0,"outlierPosition":0,"success":true,"majorityOfMostRegularShapes":null,"rt":2013.1000000001222,"rot1":25,"rot2":-5,"rot3":5,"rot4":15,"rot5":-25,"rot6":-15,"dil1":1.025,"dil2":1.075,"dil3":0.875,"dil4":1.125,"dil5":0.925,"dil6":0.975,"rots":[25,-5,5,15,-25,-15],"dils":[1.025,1.075,0.875,1.125,0.925,0.975],"loop_number":1,"everTouched":null}],"desiredDistance":0.3,"trial_type":"oddball-grid-easy","trial_index":2,"time_elapsed":213889,"internal_node_id":"0.0-2.0","ID":"ujx6ub6asv"},{"results":[{"id":"test","shape":"rustedHinge","outlier_type":0,"choice":4,"outlierPosition":5,"success":false,"majorityOfMostRegularShapes":true,"rt":7143.199999998615,"rot1":-25,"rot2":5,"rot3":-15,"rot4":-5,"rot5":25,"rot6":15,"dil1":0.875,"dil2":0.975,"dil3":1.075,"dil4":0.925,"dil5":1.125,"dil6":1.025,"rots":[-25,5,-15,-5,25,15],"dils":[0.875,0.975,1.075,0.925,1.125,1.025],"loop_number":"NA","everTouched":null},{"id":"test","shape":"square","outlier_type":3,"choice":3,"outlierPosition":3,"success":true,"majorityOfMostRegularShapes":true,"rt":3196.400000000722,"rot1":-15,"rot2":15,"rot3":-5,"rot4":25,"rot5":5,"rot6":-25,"dil1":0.925,"dil2":1.075,"dil3":1.025,"dil4":0.875,"dil5":1.125,"dil6":0.975,"rots":[-15,15,-5,25,5,-25],"dils":[0.925,1.075,1.025,0.875,1.125,0.975],"loop_number":"NA","everTouched":null},{"id":"test","shape":"parallelogram","outlier_type":2,"choice":3,"outlierPosition":3,"success":true,"majorityOfMostRegularShapes":true,"rt":2011.2999999983003,"rot1":-25,"rot2":25,"rot3":5,"rot4":-5,"rot5":15,"rot6":-15,"dil1":1.125,"dil2":0.975,"dil3":1.025,"dil4":0.925,"dil5":1.075,"dil6":0.875,"rots":[-25,25,5,-5,15,-15],"dils":[1.125,0.975,1.025,0.925,1.075,0.875],"loop_number":"NA","everTouched":null},{"id":"test","shape":"kite","outlier_type":0,"choice":2,"outlierPosition":2,"success":true,"majorityOfMostRegularShapes":true,"rt":4195.599999999104,"rot1":-25,"rot2":5,"rot3":25,"rot4":15,"rot5":-5,"rot6":-15,"dil1":1.025,"dil2":1.075,"dil3":0.875,"dil4":1.125,"dil5":0.925,"dil6":0.975,"rots":[-25,5,25,15,-5,-15],"dils":[1.025,1.075,0.875,1.125,0.925,0.975],"loop_number":"NA","everTouched":null},{"id":"test","shape":"rustedHinge","outlier_type":3,"choice":4,"outlierPosition":2,"success":false,"majorityOfMostRegularShapes":true,"rt":2081.79999999993,"rot1":25,"rot2":-15,"rot3":-25,"rot4":15,"rot5":5,"rot6":-5,"dil1":1.025,"dil2":0.925,"dil3":0.975,"dil4":1.075,"dil5":0.875,"dil6":1.125,"rots":[25,-15,-25,15,5,-5],"dils":[1.025,0.925,0.975,1.075,0.875,1.125],"loop_number":"NA","everTouched":null},{"id":"test","shape":"random","outlier_type":1,"choice":5,"outlierPosition":4,"success":false,"majorityOfMostRegularShapes":true,"rt":4811.900000000605,"rot1":15,"rot2":-25,"rot3":-15,"rot4":5,"rot5":-5,"rot6":25,"dil1":0.925,"dil2":1.075,"dil3":0.975,"dil4":0.875,"dil5":1.125,"dil6":1.025,"rots":[15,-25,-15,5,-5,25],"dils":[0.925,1.075,0.975,0.875,1.125,1.025],"loop_number":"NA","everTouched":null},{"id":"test","shape":"kite","outlier_type":2,"choice":3,"outlierPosition":3,"success":true,"majorityOfMostRegularShapes":true,"rt":7025.499999999767,"rot1":-5,"rot2":15,"rot3":25,"rot4":5,"rot5":-15,"rot6":-25,"dil1":0.975,"dil2":1.125,"dil3":0.925,"dil4":1.025,"dil5":1.075,"dil6":0.875,"rots":[-5,15,25,5,-15,-25],"dils":[0.975,1.125,0.925,1.025,1.075,0.875],"loop_number":"NA","everTouched":null},{"id":"test","shape":"trapezoid","outlier_type":3,"choice":2,"outlierPosition":3,"success":false,"majorityOfMostRegularShapes":true,"rt":2416.199999999604,"rot1":-5,"rot2":5,"rot3":-25,"rot4":-15,"rot5":15,"rot6":25,"dil1":0.875,"dil2":1.025,"dil3":0.975,"dil4":1.125,"dil5":0.925,"dil6":1.075,"rots":[-5,5,-25,-15,15,25],"dils":[0.875,1.025,0.975,1.125,0.925,1.075],"loop_number":"NA","everTouched":null},{"id":"test","shape":"square","outlier_type":2,"choice":0,"outlierPosition":0,"success":true,"majorityOfMostRegularShapes":true,"rt":2792.3999999984517,"rot1":25,"rot2":-5,"rot3":-25,"rot4":-15,"rot5":15,"rot6":5,"dil1":1.025,"dil2":0.925,"dil3":0.975,"dil4":1.125,"dil5":0.875,"dil6":1.075,"rots":[25,-5,-25,-15,15,5],"dils":[1.025,0.925,0.975,1.125,0.875,1.075],"loop_number":"NA","everTouched":null},{"id":"test","shape":"isoTrapezoid","outlier_type":3,"choice":2,"outlierPosition":4,"success":false,"majorityOfMostRegularShapes":true,"rt":1981.8000000013271,"rot1":-25,"rot2":25,"rot3":-15,"rot4":15,"rot5":5,"rot6":-5,"dil1":1.075,"dil2":0.925,"dil3":0.875,"dil4":0.975,"dil5":1.025,"dil6":1.125,"rots":[-25,25,-15,15,5,-5],"dils":[1.075,0.925,0.875,0.975,1.025,1.125],"loop_number":"NA","everTouched":null},{"id":"test","shape":"trapezoid","outlier_type":1,"choice":3,"outlierPosition":3,"success":true,"majorityOfMostRegularShapes":true,"rt":4332.900000001187,"rot1":-25,"rot2":-5,"rot3":-15,"rot4":15,"rot5":5,"rot6":25,"dil1":0.875,"dil2":0.975,"dil3":1.025,"dil4":1.075,"dil5":0.925,"dil6":1.125,"rots":[-25,-5,-15,15,5,25],"dils":[0.875,0.975,1.025,1.075,0.925,1.125],"loop_number":"NA","everTouched":null},{"id":"test","shape":"isoTrapezoid","outlier_type":2,"choice":5,"outlierPosition":3,"success":false,"majorityOfMostRegularShapes":true,"rt":2060.3999999984517,"rot1":-25,"rot2":-15,"rot3":-5,"rot4":15,"rot5":5,"rot6":25,"dil1":0.975,"dil2":1.025,"dil3":0.925,"dil4":1.125,"dil5":1.075,"dil6":0.875,"rots":[-25,-15,-5,15,5,25],"dils":[0.975,1.025,0.925,1.125,1.075,0.875],"loop_number":"NA","everTouched":null},{"id":"test","shape":"trapezoid","outlier_type":0,"choice":4,"outlierPosition":0,"success":false,"majorityOfMostRegularShapes":true,"rt":5503.600000000035,"rot1":-15,"rot2":15,"rot3":25,"rot4":-25,"rot5":-5,"rot6":5,"dil1":1.025,"dil2":1.075,"dil3":0.925,"dil4":0.975,"dil5":0.875,"dil6":1.125,"rots":[-15,15,25,-25,-5,5],"dils":[1.025,1.075,0.925,0.975,0.875,1.125],"loop_number":"NA","everTouched":null},{"id":"test","shape":"rectangle","outlier_type":3,"choice":3,"outlierPosition":3,"success":true,"majorityOfMostRegularShapes":true,"rt":5077.300000000803,"rot1":-25,"rot2":15,"rot3":-15,"rot4":-5,"rot5":25,"rot6":5,"dil1":0.925,"dil2":0.875,"dil3":1.025,"dil4":1.125,"dil5":1.075,"dil6":0.975,"rots":[-25,15,-15,-5,25,5],"dils":[0.925,0.875,1.025,1.125,1.075,0.975],"loop_number":"NA","everTouched":null},{"id":"test","shape":"parallelogram","outlier_type":0,"choice":4,"outlierPosition":5,"success":false,"majorityOfMostRegularShapes":true,"rt":2530.299999998533,"rot1":25,"rot2":-5,"rot3":-25,"rot4":5,"rot5":15,"rot6":-15,"dil1":0.975,"dil2":0.875,"dil3":0.925,"dil4":1.075,"dil5":1.125,"dil6":1.025,"rots":[25,-5,-25,5,15,-15],"dils":[0.975,0.875,0.925,1.075,1.125,1.025],"loop_number":"NA","everTouched":null},{"id":"test","shape":"rightKite","outlier_type":3,"choice":2,"outlierPosition":2,"success":true,"majorityOfMostRegularShapes":true,"rt":3461.9999999995343,"rot1":-15,"rot2":5,"rot3":-25,"rot4":-5,"rot5":15,"rot6":25,"dil1":0.925,"dil2":0.875,"dil3":1.075,"dil4":1.125,"dil5":0.975,"dil6":1.025,"rots":[-15,5,-25,-5,15,25],"dils":[0.925,0.875,1.075,1.125,0.975,1.025],"loop_number":"NA","everTouched":null},{"id":"test","shape":"rustedHinge","outlier_type":2,"choice":2,"outlierPosition":0,"success":false,"majorityOfMostRegularShapes":true,"rt":6239.200000000012,"rot1":-5,"rot2":-15,"rot3":5,"rot4":-25,"rot5":15,"rot6":25,"dil1":1.075,"dil2":1.125,"dil3":0.925,"dil4":0.875,"dil5":0.975,"dil6":1.025,"rots":[-5,-15,5,-25,15,25],"dils":[1.075,1.125,0.925,0.875,0.975,1.025],"loop_number":"NA","everTouched":null},{"id":"test","shape":"rightKite","outlier_type":1,"choice":2,"outlierPosition":2,"success":true,"majorityOfMostRegularShapes":true,"rt":4198.400000001071,"rot1":-15,"rot2":15,"rot3":-5,"rot4":25,"rot5":5,"rot6":-25,"dil1":0.875,"dil2":0.925,"dil3":1.075,"dil4":0.975,"dil5":1.125,"dil6":1.025,"rots":[-15,15,-5,25,5,-25],"dils":[0.875,0.925,1.075,0.975,1.125,1.025],"loop_number":"NA","everTouched":null},{"id":"test","shape":"hinge","outlier_type":3,"choice":5,"outlierPosition":0,"success":false,"majorityOfMostRegularShapes":true,"rt":2991.2999999978347,"rot1":15,"rot2":-5,"rot3":5,"rot4":-15,"rot5":-25,"rot6":25,"dil1":1.025,"dil2":0.975,"dil3":1.075,"dil4":0.925,"dil5":1.125,"dil6":0.875,"rots":[15,-5,5,-15,-25,25],"dils":[1.025,0.975,1.075,0.925,1.125,0.875],"loop_number":"NA","everTouched":null},{"id":"test","shape":"trapezoid","outlier_type":2,"choice":2,"outlierPosition":2,"success":true,"majorityOfMostRegularShapes":true,"rt":3376.1000000013737,"rot1":-5,"rot2":-15,"rot3":5,"rot4":15,"rot5":25,"rot6":-25,"dil1":1.075,"dil2":0.975,"dil3":0.925,"dil4":0.875,"dil5":1.025,"dil6":1.125,"rots":[-5,-15,5,15,25,-25],"dils":[1.075,0.975,0.925,0.875,1.025,1.125],"loop_number":"NA","everTouched":null},{"id":"test","shape":"rustedHinge","outlier_type":1,"choice":3,"outlierPosition":4,"success":false,"majorityOfMostRegularShapes":true,"rt":2978.2000000013504,"rot1":-25,"rot2":-5,"rot3":15,"rot4":5,"rot5":25,"rot6":-15,"dil1":1.025,"dil2":0.925,"dil3":0.975,"dil4":0.875,"dil5":1.075,"dil6":1.125,"rots":[-25,-5,15,5,25,-15],"dils":[1.025,0.925,0.975,0.875,1.075,1.125],"loop_number":"NA","everTouched":null},{"id":"test","shape":"random","outlier_type":2,"choice":2,"outlierPosition":1,"success":false,"majorityOfMostRegularShapes":true,"rt":2640.2999999991152,"rot1":25,"rot2":15,"rot3":-25,"rot4":-15,"rot5":-5,"rot6":5,"dil1":0.975,"dil2":1.075,"dil3":0.925,"dil4":1.125,"dil5":0.875,"dil6":1.025,"rots":[25,15,-25,-15,-5,5],"dils":[0.975,1.075,0.925,1.125,0.875,1.025],"loop_number":"NA","everTouched":null},{"id":"test","shape":"losange","outlier_type":3,"choice":1,"outlierPosition":4,"success":false,"majorityOfMostRegularShapes":true,"rt":1791.8000000027241,"rot1":15,"rot2":5,"rot3":-25,"rot4":-15,"rot5":-5,"rot6":25,"dil1":0.975,"dil2":1.025,"dil3":0.875,"dil4":1.075,"dil5":0.925,"dil6":1.125,"rots":[15,5,-25,-15,-5,25],"dils":[0.975,1.025,0.875,1.075,0.925,1.125],"loop_number":"NA","everTouched":null},{"id":"test","shape":"isoTrapezoid","outlier_type":1,"choice":5,"outlierPosition":2,"success":false,"majorityOfMostRegularShapes":true,"rt":6010.500000000349,"rot1":-5,"rot2":-25,"rot3":15,"rot4":5,"rot5":25,"rot6":-15,"dil1":0.925,"dil2":0.975,"dil3":1.075,"dil4":0.875,"dil5":1.125,"dil6":1.025,"rots":[-5,-25,15,5,25,-15],"dils":[0.925,0.975,1.075,0.875,1.125,1.025],"loop_number":"NA","everTouched":null},{"id":"test","shape":"random","outlier_type":3,"choice":3,"outlierPosition":2,"success":false,"majorityOfMostRegularShapes":true,"rt":4680.100000001432,"rot1":-5,"rot2":15,"rot3":-15,"rot4":-25,"rot5":5,"rot6":25,"dil1":1.125,"dil2":1.075,"dil3":0.925,"dil4":0.875,"dil5":0.975,"dil6":1.025,"rots":[-5,15,-15,-25,5,25],"dils":[1.125,1.075,0.925,0.875,0.975,1.025],"loop_number":"NA","everTouched":null},{"id":"test","shape":"square","outlier_type":0,"choice":0,"outlierPosition":0,"success":true,"majorityOfMostRegularShapes":true,"rt":4393.400000000838,"rot1":-5,"rot2":25,"rot3":-25,"rot4":5,"rot5":15,"rot6":-15,"dil1":1.075,"dil2":0.975,"dil3":1.125,"dil4":0.925,"dil5":0.875,"dil6":1.025,"rots":[-5,25,-25,5,15,-15],"dils":[1.075,0.975,1.125,0.925,0.875,1.025],"loop_number":"NA","everTouched":null},{"id":"test","shape":"rectangle","outlier_type":1,"choice":4,"outlierPosition":4,"success":true,"majorityOfMostRegularShapes":true,"rt":3119.200000001001,"rot1":15,"rot2":-5,"rot3":5,"rot4":25,"rot5":-15,"rot6":-25,"dil1":0.875,"dil2":1.125,"dil3":1.025,"dil4":0.975,"dil5":1.075,"dil6":0.925,"rots":[15,-5,5,25,-15,-25],"dils":[0.875,1.125,1.025,0.975,1.075,0.925],"loop_number":"NA","everTouched":null},{"id":"test","shape":"rightKite","outlier_type":2,"choice":1,"outlierPosition":1,"success":true,"majorityOfMostRegularShapes":true,"rt":3362.700000001525,"rot1":-15,"rot2":-25,"rot3":25,"rot4":-5,"rot5":15,"rot6":5,"dil1":0.925,"dil2":1.025,"dil3":1.125,"dil4":1.075,"dil5":0.975,"dil6":0.875,"rots":[-15,-25,25,-5,15,5],"dils":[0.925,1.025,1.125,1.075,0.975,0.875],"loop_number":"NA","everTouched":null},{"id":"test","shape":"losange","outlier_type":1,"choice":3,"outlierPosition":3,"success":true,"majorityOfMostRegularShapes":true,"rt":4000.4999999982538,"rot1":15,"rot2":25,"rot3":-5,"rot4":-25,"rot5":5,"rot6":-15,"dil1":0.875,"dil2":1.075,"dil3":0.925,"dil4":1.125,"dil5":0.975,"dil6":1.025,"rots":[15,25,-5,-25,5,-15],"dils":[0.875,1.075,0.925,1.125,0.975,1.025],"loop_number":"NA","everTouched":null},{"id":"test","shape":"kite","outlier_type":3,"choice":4,"outlierPosition":0,"success":false,"majorityOfMostRegularShapes":true,"rt":3427.1999999983236,"rot1":5,"rot2":25,"rot3":15,"rot4":-15,"rot5":-25,"rot6":-5,"dil1":0.975,"dil2":1.125,"dil3":0.875,"dil4":1.025,"dil5":1.075,"dil6":0.925,"rots":[5,25,15,-15,-25,-5],"dils":[0.975,1.125,0.875,1.025,1.075,0.925],"loop_number":"NA","everTouched":null},{"id":"test","shape":"hinge","outlier_type":1,"choice":0,"outlierPosition":5,"success":false,"majorityOfMostRegularShapes":true,"rt":6139.699999999721,"rot1":15,"rot2":25,"rot3":-15,"rot4":-5,"rot5":-25,"rot6":5,"dil1":1.075,"dil2":0.875,"dil3":0.925,"dil4":1.025,"dil5":1.125,"dil6":0.975,"rots":[15,25,-15,-5,-25,5],"dils":[1.075,0.875,0.925,1.025,1.125,0.975],"loop_number":"NA","everTouched":null},{"id":"test","shape":"rectangle","outlier_type":0,"choice":5,"outlierPosition":5,"success":true,"majorityOfMostRegularShapes":true,"rt":2510.500000000291,"rot1":25,"rot2":-15,"rot3":5,"rot4":15,"rot5":-25,"rot6":-5,"dil1":1.125,"dil2":0.975,"dil3":1.025,"dil4":0.925,"dil5":0.875,"dil6":1.075,"rots":[25,-15,5,15,-25,-5],"dils":[1.125,0.975,1.025,0.925,0.875,1.075],"loop_number":"NA","everTouched":null},{"id":"test","shape":"kite","outlier_type":1,"choice":2,"outlierPosition":2,"success":true,"majorityOfMostRegularShapes":true,"rt":2628.099999998114,"rot1":-5,"rot2":-15,"rot3":-25,"rot4":5,"rot5":25,"rot6":15,"dil1":0.975,"dil2":0.925,"dil3":1.125,"dil4":0.875,"dil5":1.025,"dil6":1.075,"rots":[-5,-15,-25,5,25,15],"dils":[0.975,0.925,1.125,0.875,1.025,1.075],"loop_number":"NA","everTouched":null},{"id":"test","shape":"losange","outlier_type":2,"choice":2,"outlierPosition":2,"success":true,"majorityOfMostRegularShapes":true,"rt":1817.2000000013504,"rot1":-15,"rot2":15,"rot3":5,"rot4":-25,"rot5":-5,"rot6":25,"dil1":0.875,"dil2":1.025,"dil3":1.075,"dil4":1.125,"dil5":0.975,"dil6":0.925,"rots":[-15,15,5,-25,-5,25],"dils":[0.875,1.025,1.075,1.125,0.975,0.925],"loop_number":"NA","everTouched":null},{"id":"test","shape":"parallelogram","outlier_type":1,"choice":1,"outlierPosition":1,"success":true,"majorityOfMostRegularShapes":true,"rt":3239.6000000007916,"rot1":15,"rot2":-5,"rot3":5,"rot4":25,"rot5":-15,"rot6":-25,"dil1":0.925,"dil2":0.975,"dil3":1.125,"dil4":1.075,"dil5":0.875,"dil6":1.025,"rots":[15,-5,5,25,-15,-25],"dils":[0.925,0.975,1.125,1.075,0.875,1.025],"loop_number":"NA","everTouched":null},{"id":"test","shape":"hinge","outlier_type":2,"choice":3,"outlierPosition":0,"success":false,"majorityOfMostRegularShapes":true,"rt":4984.400000001187,"rot1":15,"rot2":-15,"rot3":5,"rot4":-25,"rot5":25,"rot6":-5,"dil1":1.075,"dil2":0.875,"dil3":1.025,"dil4":0.975,"dil5":0.925,"dil6":1.125,"rots":[15,-15,5,-25,25,-5],"dils":[1.075,0.875,1.025,0.975,0.925,1.125],"loop_number":"NA","everTouched":null},{"id":"test","shape":"losange","outlier_type":0,"choice":5,"outlierPosition":5,"success":true,"majorityOfMostRegularShapes":true,"rt":4975.800000000163,"rot1":25,"rot2":15,"rot3":5,"rot4":-15,"rot5":-25,"rot6":-5,"dil1":1.025,"dil2":0.925,"dil3":0.975,"dil4":1.125,"dil5":1.075,"dil6":0.875,"rots":[25,15,5,-15,-25,-5],"dils":[1.025,0.925,0.975,1.125,1.075,0.875],"loop_number":"NA","everTouched":null},{"id":"test","shape":"square","outlier_type":1,"choice":1,"outlierPosition":1,"success":true,"majorityOfMostRegularShapes":true,"rt":2366.299999997893,"rot1":-25,"rot2":-15,"rot3":5,"rot4":25,"rot5":15,"rot6":-5,"dil1":0.975,"dil2":0.875,"dil3":0.925,"dil4":1.125,"dil5":1.025,"dil6":1.075,"rots":[-25,-15,5,25,15,-5],"dils":[0.975,0.875,0.925,1.125,1.025,1.075],"loop_number":"NA","everTouched":null},{"id":"test","shape":"hinge","outlier_type":0,"choice":0,"outlierPosition":1,"success":false,"majorityOfMostRegularShapes":true,"rt":4165.000000000815,"rot1":-15,"rot2":25,"rot3":15,"rot4":5,"rot5":-5,"rot6":-25,"dil1":0.875,"dil2":1.025,"dil3":1.125,"dil4":1.075,"dil5":0.975,"dil6":0.925,"rots":[-15,25,15,5,-5,-25],"dils":[0.875,1.025,1.125,1.075,0.975,0.925],"loop_number":"NA","everTouched":null},{"id":"test","shape":"parallelogram","outlier_type":3,"choice":5,"outlierPosition":5,"success":true,"majorityOfMostRegularShapes":true,"rt":4339.799999997951,"rot1":-25,"rot2":25,"rot3":-15,"rot4":5,"rot5":-5,"rot6":15,"dil1":1.025,"dil2":1.075,"dil3":1.125,"dil4":0.975,"dil5":0.925,"dil6":0.875,"rots":[-25,25,-15,5,-5,15],"dils":[1.025,1.075,1.125,0.975,0.925,0.875],"loop_number":"NA","everTouched":null},{"id":"test","shape":"isoTrapezoid","outlier_type":0,"choice":3,"outlierPosition":1,"success":false,"majorityOfMostRegularShapes":true,"rt":5442.899999998161,"rot1":15,"rot2":-25,"rot3":5,"rot4":-5,"rot5":25,"rot6":-15,"dil1":0.975,"dil2":1.075,"dil3":1.125,"dil4":0.875,"dil5":0.925,"dil6":1.025,"rots":[15,-25,5,-5,25,-15],"dils":[0.975,1.075,1.125,0.875,0.925,1.025],"loop_number":"NA","everTouched":null},{"id":"test","shape":"rectangle","outlier_type":2,"choice":5,"outlierPosition":5,"success":true,"majorityOfMostRegularShapes":true,"rt":3186.7999999994645,"rot1":15,"rot2":5,"rot3":-25,"rot4":-5,"rot5":25,"rot6":-15,"dil1":0.875,"dil2":1.125,"dil3":0.975,"dil4":0.925,"dil5":1.075,"dil6":1.025,"rots":[15,5,-25,-5,25,-15],"dils":[0.875,1.125,0.975,0.925,1.075,1.025],"loop_number":"NA","everTouched":null},{"id":"test","shape":"rightKite","outlier_type":0,"choice":2,"outlierPosition":2,"success":true,"majorityOfMostRegularShapes":true,"rt":4365.599999997357,"rot1":15,"rot2":-15,"rot3":5,"rot4":-25,"rot5":-5,"rot6":25,"dil1":0.875,"dil2":0.975,"dil3":0.925,"dil4":1.075,"dil5":1.125,"dil6":1.025,"rots":[15,-15,5,-25,-5,25],"dils":[0.875,0.975,0.925,1.075,1.125,1.025],"loop_number":"NA","everTouched":null},{"id":"test","shape":"random","outlier_type":0,"choice":0,"outlierPosition":1,"success":false,"majorityOfMostRegularShapes":true,"rt":4646.79999999865,"rot1":-15,"rot2":15,"rot3":-25,"rot4":-5,"rot5":25,"rot6":5,"dil1":0.875,"dil2":1.025,"dil3":1.125,"dil4":1.075,"dil5":0.975,"dil6":0.925,"rots":[-15,15,-25,-5,25,5],"dils":[0.875,1.025,1.125,1.075,0.975,0.925],"loop_number":"NA","everTouched":null}],"desiredDistance":0.3,"trial_type":"oddball-grid","trial_index":3,"time_elapsed":500870,"internal_node_id":"0.0-3.0","ID":"ujx6ub6asv"},{"success":true,"trial_type":"fullscreen","trial_index":4,"time_elapsed":509943,"internal_node_id":"0.0-4.0","ID":"ujx6ub6asv"}]