[{"success":true,"trial_type":"fullscreen","trial_index":0,"time_elapsed":16323,"internal_node_id":"0.0-0.0","ID":"mbse2ual93"},{"results":[{"id":"train-images","shape":"8","outlier_type":"NA","choice":5,"outlierPosition":5,"success":true,"majorityOfMostRegularShapes":"NA","rt":2812.199999999393,"rot1":25,"rot2":5,"rot3":15,"rot4":-25,"rot5":-15,"rot6":-5,"dil1":1.025,"dil2":1.125,"dil3":0.975,"dil4":1.075,"dil5":0.875,"dil6":0.925,"rots":[25,5,15,-25,-15,-5],"dils":[1.025,1.125,0.975,1.075,0.875,0.925],"loop_number":1,"everTouched":null},{"id":"train-images","shape":"1","outlier_type":"NA","choice":4,"outlierPosition":4,"success":true,"majorityOfMostRegularShapes":"NA","rt":2462.9000000004453,"rot1":-15,"rot2":15,"rot3":-25,"rot4":-5,"rot5":5,"rot6":25,"dil1":0.875,"dil2":1.075,"dil3":0.925,"dil4":1.025,"dil5":0.975,"dil6":1.125,"rots":[-15,15,-25,-5,5,25],"dils":[0.875,1.075,0.925,1.025,0.975,1.125],"loop_number":1,"everTouched":null},{"id":"train-images","shape":"10","outlier_type":"NA","choice":2,"outlierPosition":2,"success":true,"majorityOfMostRegularShapes":"NA","rt":1441.8000000005122,"rot1":-25,"rot2":15,"rot3":-15,"rot4":5,"rot5":25,"rot6":-5,"dil1":1.125,"dil2":0.925,"dil3":0.875,"dil4":1.075,"dil5":1.025,"dil6":0.975,"rots":[-25,15,-15,5,25,-5],"dils":[1.125,0.925,0.875,1.075,1.025,0.975],"loop_number":1,"everTouched":null},{"id":"train-images","shape":"4","outlier_type":"NA","choice":5,"outlierPosition":5,"success":true,"majorityOfMostRegularShapes":"NA","rt":1250.1000000002023,"rot1":-25,"rot2":-15,"rot3":-5,"rot4":25,"rot5":5,"rot6":15,"dil1":1.075,"dil2":0.925,"dil3":1.125,"dil4":0.875,"dil5":0.975,"dil6":1.025,"rots":[-25,-15,-5,25,5,15],"dils":[1.075,0.925,1.125,0.875,0.975,1.025],"loop_number":1,"everTouched":null},{"id":"train-images","shape":"2","outlier_type":"NA","choice":1,"outlierPosition":1,"success":true,"majorityOfMostRegularShapes":"NA","rt":1258.79999999961,"rot1":15,"rot2":-25,"rot3":-5,"rot4":-15,"rot5":25,"rot6":5,"dil1":1.025,"dil2":0.925,"dil3":0.975,"dil4":0.875,"dil5":1.125,"dil6":1.075,"rots":[15,-25,-5,-15,25,5],"dils":[1.025,0.925,0.975,0.875,1.125,1.075],"loop_number":1,"everTouched":null},{"id":"train-images","shape":"7","outlier_type":"NA","choice":2,"outlierPosition":2,"success":true,"majorityOfMostRegularShapes":"NA","rt":2260.2999999999156,"rot1":-5,"rot2":25,"rot3":15,"rot4":-25,"rot5":-15,"rot6":5,"dil1":0.875,"dil2":1.075,"dil3":1.025,"dil4":1.125,"dil5":0.925,"dil6":0.975,"rots":[-5,25,15,-25,-15,5],"dils":[0.875,1.075,1.025,1.125,0.925,0.975],"loop_number":1,"everTouched":null},{"id":"train-images","shape":"5","outlier_type":"NA","choice":0,"outlierPosition":0,"success":true,"majorityOfMostRegularShapes":"NA","rt":1631.4000000002125,"rot1":15,"rot2":-5,"rot3":-15,"rot4":5,"rot5":-25,"rot6":25,"dil1":0.975,"dil2":0.875,"dil3":0.925,"dil4":1.075,"dil5":1.025,"dil6":1.125,"rots":[15,-5,-15,5,-25,25],"dils":[0.975,0.875,0.925,1.075,1.025,1.125],"loop_number":1,"everTouched":null},{"id":"train-images","shape":"9","outlier_type":"NA","choice":1,"outlierPosition":1,"success":true,"majorityOfMostRegularShapes":"NA","rt":1738.4999999994761,"rot1":15,"rot2":-15,"rot3":-25,"rot4":-5,"rot5":5,"rot6":25,"dil1":1.075,"dil2":1.125,"dil3":1.025,"dil4":0.875,"dil5":0.975,"dil6":0.925,"rots":[15,-15,-25,-5,5,25],"dils":[1.075,1.125,1.025,0.875,0.975,0.925],"loop_number":1,"everTouched":null},{"id":"train-images","shape":"6","outlier_type":"NA","choice":5,"outlierPosition":5,"success":true,"majorityOfMostRegularShapes":"NA","rt":1713.2000000001426,"rot1":25,"rot2":5,"rot3":-25,"rot4":15,"rot5":-15,"rot6":-5,"dil1":0.875,"dil2":0.975,"dil3":1.025,"dil4":1.075,"dil5":0.925,"dil6":1.125,"rots":[25,5,-25,15,-15,-5],"dils":[0.875,0.975,1.025,1.075,0.925,1.125],"loop_number":1,"everTouched":null},{"id":"train-images","shape":"3","outlier_type":"NA","choice":5,"outlierPosition":5,"success":true,"majorityOfMostRegularShapes":"NA","rt":1615.3000000003885,"rot1":-15,"rot2":-5,"rot3":-25,"rot4":15,"rot5":5,"rot6":25,"dil1":0.925,"dil2":1.025,"dil3":0.875,"dil4":0.975,"dil5":1.125,"dil6":1.075,"rots":[-15,-5,-25,15,5,25],"dils":[0.925,1.025,0.875,0.975,1.125,1.075],"loop_number":1,"everTouched":null}],"trial_type":"oddball-grid-image","trial_index":1,"time_elapsed":63748,"internal_node_id":"0.0-1.0","ID":"mbse2ual93"},{"results":[{"id":"train","shape":null,"outlier_type":null,"choice":2,"outlierPosition":2,"success":true,"majorityOfMostRegularShapes":null,"rt":1707.300000000032,"rot1":15,"rot2":5,"rot3":25,"rot4":-25,"rot5":-5,"rot6":-15,"dil1":0.875,"dil2":0.925,"dil3":1.025,"dil4":1.125,"dil5":0.975,"dil6":1.075,"rots":[15,5,25,-25,-5,-15],"dils":[0.875,0.925,1.025,1.125,0.975,1.075],"loop_number":1,"everTouched":null},{"id":"train","shape":null,"outlier_type":null,"choice":3,"outlierPosition":3,"success":true,"majorityOfMostRegularShapes":null,"rt":3375.7000000005064,"rot1":-15,"rot2":5,"rot3":-5,"rot4":25,"rot5":15,"rot6":-25,"dil1":1.075,"dil2":1.125,"dil3":1.025,"dil4":0.875,"dil5":0.975,"dil6":0.925,"rots":[-15,5,-5,25,15,-25],"dils":[1.075,1.125,1.025,0.875,0.975,0.925],"loop_number":1,"everTouched":null},{"id":"train","shape":null,"outlier_type":null,"choice":0,"outlierPosition":0,"success":true,"majorityOfMostRegularShapes":null,"rt":1925.9999999994761,"rot1":-15,"rot2":25,"rot3":-5,"rot4":-25,"rot5":5,"rot6":15,"dil1":1.075,"dil2":1.125,"dil3":0.925,"dil4":0.875,"dil5":1.025,"dil6":0.975,"rots":[-15,25,-5,-25,5,15],"dils":[1.075,1.125,0.925,0.875,1.025,0.975],"loop_number":1,"everTouched":null},{"id":"train","shape":null,"outlier_type":null,"choice":5,"outlierPosition":5,"success":true,"majorityOfMostRegularShapes":null,"rt":1766.599999999933,"rot1":-5,"rot2":-25,"rot3":15,"rot4":25,"rot5":-15,"rot6":5,"dil1":1.125,"dil2":0.925,"dil3":0.875,"dil4":0.975,"dil5":1.025,"dil6":1.075,"rots":[-5,-25,15,25,-15,5],"dils":[1.125,0.925,0.875,0.975,1.025,1.075],"loop_number":1,"everTouched":null},{"id":"train","shape":null,"outlier_type":null,"choice":1,"outlierPosition":1,"success":true,"majorityOfMostRegularShapes":null,"rt":1506.199999999808,"rot1":15,"rot2":5,"rot3":-25,"rot4":-15,"rot5":-5,"rot6":25,"dil1":0.925,"dil2":1.025,"dil3":1.125,"dil4":0.975,"dil5":0.875,"dil6":1.075,"rots":[15,5,-25,-15,-5,25],"dils":[0.925,1.025,1.125,0.975,0.875,1.075],"loop_number":1,"everTouched":null},{"id":"train","shape":null,"outlier_type":null,"choice":4,"outlierPosition":4,"success":true,"majorityOfMostRegularShapes":null,"rt":3434.599999999584,"rot1":-5,"rot2":5,"rot3":-25,"rot4":15,"rot5":25,"rot6":-15,"dil1":1.075,"dil2":1.025,"dil3":0.875,"dil4":1.125,"dil5":0.925,"dil6":0.975,"rots":[-5,5,-25,15,25,-15],"dils":[1.075,1.025,0.875,1.125,0.925,0.975],"loop_number":1,"everTouched":null}],"desiredDistance":0.3,"trial_type":"oddball-grid-easy","trial_index":2,"time_elapsed":89971,"internal_node_id":"0.0-2.0","ID":"mbse2ual93"},{"results":[{"id":"test","shape":"parallelogram","outlier_type":1,"choice":0,"outlierPosition":3,"success":false,"majorityOfMostRegularShapes":true,"rt":3928.8999999998923,"rot1":25,"rot2":5,"rot3":15,"rot4":-15,"rot5":-25,"rot6":-5,"dil1":0.875,"dil2":1.075,"dil3":1.125,"dil4":1.025,"dil5":0.925,"dil6":0.975,"rots":[25,5,15,-15,-25,-5],"dils":[0.875,1.075,1.125,1.025,0.925,0.975],"loop_number":"NA","everTouched":null},{"id":"test","shape":"random","outlier_type":3,"choice":2,"outlierPosition":1,"success":false,"majorityOfMostRegularShapes":true,"rt":8903.29999999993,"rot1":5,"rot2":-5,"rot3":-15,"rot4":25,"rot5":15,"rot6":-25,"dil1":0.925,"dil2":0.975,"dil3":1.075,"dil4":1.125,"dil5":0.875,"dil6":1.025,"rots":[5,-5,-15,25,15,-25],"dils":[0.925,0.975,1.075,1.125,0.875,1.025],"loop_number":"NA","everTouched":null},{"id":"test","shape":"rustedHinge","outlier_type":0,"choice":5,"outlierPosition":3,"success":false,"majorityOfMostRegularShapes":true,"rt":6829.8000000004395,"rot1":5,"rot2":15,"rot3":-25,"rot4":-15,"rot5":25,"rot6":-5,"dil1":0.875,"dil2":1.075,"dil3":1.125,"dil4":0.925,"dil5":0.975,"dil6":1.025,"rots":[5,15,-25,-15,25,-5],"dils":[0.875,1.075,1.125,0.925,0.975,1.025],"loop_number":"NA","everTouched":null},{"id":"test","shape":"isoTrapezoid","outlier_type":3,"choice":0,"outlierPosition":0,"success":true,"majorityOfMostRegularShapes":true,"rt":3260.50000000032,"rot1":15,"rot2":-25,"rot3":25,"rot4":5,"rot5":-15,"rot6":-5,"dil1":0.875,"dil2":1.025,"dil3":1.125,"dil4":1.075,"dil5":0.975,"dil6":0.925,"rots":[15,-25,25,5,-15,-5],"dils":[0.875,1.025,1.125,1.075,0.975,0.925],"loop_number":"NA","everTouched":null},{"id":"test","shape":"losange","outlier_type":1,"choice":3,"outlierPosition":3,"success":true,"majorityOfMostRegularShapes":true,"rt":3017.100000000035,"rot1":-15,"rot2":-5,"rot3":15,"rot4":-25,"rot5":25,"rot6":5,"dil1":1.025,"dil2":0.975,"dil3":0.875,"dil4":0.925,"dil5":1.075,"dil6":1.125,"rots":[-15,-5,15,-25,25,5],"dils":[1.025,0.975,0.875,0.925,1.075,1.125],"loop_number":"NA","everTouched":null},{"id":"test","shape":"random","outlier_type":2,"choice":5,"outlierPosition":2,"success":false,"majorityOfMostRegularShapes":true,"rt":6657.7000000006665,"rot1":5,"rot2":-25,"rot3":25,"rot4":-15,"rot5":-5,"rot6":15,"dil1":0.975,"dil2":1.025,"dil3":0.875,"dil4":1.125,"dil5":1.075,"dil6":0.925,"rots":[5,-25,25,-15,-5,15],"dils":[0.975,1.025,0.875,1.125,1.075,0.925],"loop_number":"NA","everTouched":null},{"id":"test","shape":"trapezoid","outlier_type":1,"choice":3,"outlierPosition":3,"success":true,"majorityOfMostRegularShapes":true,"rt":3742.2000000005937,"rot1":5,"rot2":25,"rot3":-5,"rot4":-25,"rot5":-15,"rot6":15,"dil1":0.925,"dil2":1.075,"dil3":0.975,"dil4":1.025,"dil5":0.875,"dil6":1.125,"rots":[5,25,-5,-25,-15,15],"dils":[0.925,1.075,0.975,1.025,0.875,1.125],"loop_number":"NA","everTouched":null},{"id":"test","shape":"rustedHinge","outlier_type":2,"choice":2,"outlierPosition":2,"success":true,"majorityOfMostRegularShapes":true,"rt":2383.3999999997322,"rot1":-5,"rot2":-15,"rot3":-25,"rot4":25,"rot5":5,"rot6":15,"dil1":0.875,"dil2":1.025,"dil3":0.975,"dil4":0.925,"dil5":1.075,"dil6":1.125,"rots":[-5,-15,-25,25,5,15],"dils":[0.875,1.025,0.975,0.925,1.075,1.125],"loop_number":"NA","everTouched":null},{"id":"test","shape":"hinge","outlier_type":1,"choice":3,"outlierPosition":3,"success":true,"majorityOfMostRegularShapes":true,"rt":3687.700000000419,"rot1":15,"rot2":-5,"rot3":-15,"rot4":5,"rot5":25,"rot6":-25,"dil1":0.875,"dil2":1.075,"dil3":0.975,"dil4":1.025,"dil5":0.925,"dil6":1.125,"rots":[15,-5,-15,5,25,-25],"dils":[0.875,1.075,0.975,1.025,0.925,1.125],"loop_number":"NA","everTouched":null},{"id":"test","shape":"rectangle","outlier_type":0,"choice":2,"outlierPosition":2,"success":true,"majorityOfMostRegularShapes":true,"rt":2878.5000000006985,"rot1":25,"rot2":-25,"rot3":15,"rot4":-5,"rot5":5,"rot6":-15,"dil1":1.075,"dil2":1.125,"dil3":0.925,"dil4":0.975,"dil5":1.025,"dil6":0.875,"rots":[25,-25,15,-5,5,-15],"dils":[1.075,1.125,0.925,0.975,1.025,0.875],"loop_number":"NA","everTouched":null},{"id":"test","shape":"rightKite","outlier_type":2,"choice":5,"outlierPosition":2,"success":false,"majorityOfMostRegularShapes":true,"rt":3124.8999999997905,"rot1":25,"rot2":-5,"rot3":-25,"rot4":15,"rot5":-15,"rot6":5,"dil1":0.925,"dil2":1.025,"dil3":1.075,"dil4":1.125,"dil5":0.975,"dil6":0.875,"rots":[25,-5,-25,15,-15,5],"dils":[0.925,1.025,1.075,1.125,0.975,0.875],"loop_number":"NA","everTouched":null},{"id":"test","shape":"rustedHinge","outlier_type":3,"choice":2,"outlierPosition":2,"success":true,"majorityOfMostRegularShapes":true,"rt":7143.500000000116,"rot1":5,"rot2":15,"rot3":25,"rot4":-5,"rot5":-25,"rot6":-15,"dil1":1.075,"dil2":1.125,"dil3":1.025,"dil4":0.925,"dil5":0.875,"dil6":0.975,"rots":[5,15,25,-5,-25,-15],"dils":[1.075,1.125,1.025,0.925,0.875,0.975],"loop_number":"NA","everTouched":null},{"id":"test","shape":"hinge","outlier_type":2,"choice":5,"outlierPosition":5,"success":true,"majorityOfMostRegularShapes":true,"rt":2460.000000000029,"rot1":15,"rot2":-25,"rot3":-5,"rot4":5,"rot5":-15,"rot6":25,"dil1":1.125,"dil2":0.975,"dil3":1.075,"dil4":0.875,"dil5":1.025,"dil6":0.925,"rots":[15,-25,-5,5,-15,25],"dils":[1.125,0.975,1.075,0.875,1.025,0.925],"loop_number":"NA","everTouched":null},{"id":"test","shape":"rectangle","outlier_type":3,"choice":2,"outlierPosition":3,"success":false,"majorityOfMostRegularShapes":true,"rt":2316.4999999998836,"rot1":-25,"rot2":-5,"rot3":5,"rot4":25,"rot5":15,"rot6":-15,"dil1":0.925,"dil2":0.975,"dil3":1.125,"dil4":0.875,"dil5":1.025,"dil6":1.075,"rots":[-25,-5,5,25,15,-15],"dils":[0.925,0.975,1.125,0.875,1.025,1.075],"loop_number":"NA","everTouched":null},{"id":"test","shape":"trapezoid","outlier_type":2,"choice":4,"outlierPosition":4,"success":true,"majorityOfMostRegularShapes":true,"rt":2933.699999999575,"rot1":5,"rot2":15,"rot3":-5,"rot4":25,"rot5":-25,"rot6":-15,"dil1":1.075,"dil2":1.025,"dil3":0.925,"dil4":1.125,"dil5":0.975,"dil6":0.875,"rots":[5,15,-5,25,-25,-15],"dils":[1.075,1.025,0.925,1.125,0.975,0.875],"loop_number":"NA","everTouched":null},{"id":"test","shape":"rightKite","outlier_type":3,"choice":5,"outlierPosition":3,"success":false,"majorityOfMostRegularShapes":true,"rt":7529.4000000003725,"rot1":-25,"rot2":25,"rot3":5,"rot4":-5,"rot5":15,"rot6":-15,"dil1":0.975,"dil2":0.875,"dil3":1.075,"dil4":1.125,"dil5":0.925,"dil6":1.025,"rots":[-25,25,5,-5,15,-15],"dils":[0.975,0.875,1.075,1.125,0.925,1.025],"loop_number":"NA","everTouched":null},{"id":"test","shape":"random","outlier_type":1,"choice":2,"outlierPosition":3,"success":false,"majorityOfMostRegularShapes":true,"rt":2850.9000000003725,"rot1":15,"rot2":-15,"rot3":25,"rot4":-25,"rot5":5,"rot6":-5,"dil1":1.025,"dil2":0.925,"dil3":0.875,"dil4":1.075,"dil5":0.975,"dil6":1.125,"rots":[15,-15,25,-25,5,-5],"dils":[1.025,0.925,0.875,1.075,0.975,1.125],"loop_number":"NA","everTouched":null},{"id":"test","shape":"hinge","outlier_type":3,"choice":5,"outlierPosition":5,"success":true,"majorityOfMostRegularShapes":true,"rt":4322.90000000014,"rot1":5,"rot2":15,"rot3":-5,"rot4":25,"rot5":-15,"rot6":-25,"dil1":1.125,"dil2":0.925,"dil3":1.075,"dil4":0.875,"dil5":0.975,"dil6":1.025,"rots":[5,15,-5,25,-15,-25],"dils":[1.125,0.925,1.075,0.875,0.975,1.025],"loop_number":"NA","everTouched":null},{"id":"test","shape":"losange","outlier_type":2,"choice":2,"outlierPosition":2,"success":true,"majorityOfMostRegularShapes":true,"rt":2998.9999999998254,"rot1":-25,"rot2":-5,"rot3":25,"rot4":-15,"rot5":5,"rot6":15,"dil1":0.925,"dil2":1.125,"dil3":1.025,"dil4":0.975,"dil5":1.075,"dil6":0.875,"rots":[-25,-5,25,-15,5,15],"dils":[0.925,1.125,1.025,0.975,1.075,0.875],"loop_number":"NA","everTouched":null},{"id":"test","shape":"losange","outlier_type":0,"choice":0,"outlierPosition":1,"success":false,"majorityOfMostRegularShapes":true,"rt":4501.1999999996915,"rot1":-25,"rot2":-5,"rot3":25,"rot4":-15,"rot5":5,"rot6":15,"dil1":1.025,"dil2":1.125,"dil3":0.925,"dil4":0.875,"dil5":0.975,"dil6":1.075,"rots":[-25,-5,25,-15,5,15],"dils":[1.025,1.125,0.925,0.875,0.975,1.075],"loop_number":"NA","everTouched":null},{"id":"test","shape":"rectangle","outlier_type":2,"choice":4,"outlierPosition":4,"success":true,"majorityOfMostRegularShapes":true,"rt":3273.0000000001455,"rot1":15,"rot2":-25,"rot3":5,"rot4":-15,"rot5":25,"rot6":-5,"dil1":0.975,"dil2":0.925,"dil3":1.125,"dil4":1.025,"dil5":0.875,"dil6":1.075,"rots":[15,-25,5,-15,25,-5],"dils":[0.975,0.925,1.125,1.025,0.875,1.075],"loop_number":"NA","everTouched":null},{"id":"test","shape":"isoTrapezoid","outlier_type":1,"choice":0,"outlierPosition":0,"success":true,"majorityOfMostRegularShapes":true,"rt":3323.7999999992317,"rot1":5,"rot2":-25,"rot3":15,"rot4":-5,"rot5":25,"rot6":-15,"dil1":1.025,"dil2":0.975,"dil3":1.125,"dil4":1.075,"dil5":0.925,"dil6":0.875,"rots":[5,-25,15,-5,25,-15],"dils":[1.025,0.975,1.125,1.075,0.925,0.875],"loop_number":"NA","everTouched":null},{"id":"test","shape":"square","outlier_type":0,"choice":1,"outlierPosition":1,"success":true,"majorityOfMostRegularShapes":true,"rt":3285.6000000001513,"rot1":5,"rot2":-25,"rot3":15,"rot4":25,"rot5":-15,"rot6":-5,"dil1":0.875,"dil2":1.075,"dil3":1.025,"dil4":0.925,"dil5":1.125,"dil6":0.975,"rots":[5,-25,15,25,-15,-5],"dils":[0.875,1.075,1.025,0.925,1.125,0.975],"loop_number":"NA","everTouched":null},{"id":"test","shape":"isoTrapezoid","outlier_type":2,"choice":2,"outlierPosition":2,"success":true,"majorityOfMostRegularShapes":true,"rt":2563.399999999994,"rot1":-15,"rot2":25,"rot3":5,"rot4":15,"rot5":-5,"rot6":-25,"dil1":1.075,"dil2":0.925,"dil3":0.875,"dil4":1.125,"dil5":1.025,"dil6":0.975,"rots":[-15,25,5,15,-5,-25],"dils":[1.075,0.925,0.875,1.125,1.025,0.975],"loop_number":"NA","everTouched":null},{"id":"test","shape":"hinge","outlier_type":0,"choice":1,"outlierPosition":1,"success":true,"majorityOfMostRegularShapes":true,"rt":6359.399999999354,"rot1":5,"rot2":25,"rot3":-5,"rot4":-15,"rot5":15,"rot6":-25,"dil1":1.025,"dil2":0.875,"dil3":1.075,"dil4":0.925,"dil5":0.975,"dil6":1.125,"rots":[5,25,-5,-15,15,-25],"dils":[1.025,0.875,1.075,0.925,0.975,1.125],"loop_number":"NA","everTouched":null},{"id":"test","shape":"square","outlier_type":3,"choice":2,"outlierPosition":2,"success":true,"majorityOfMostRegularShapes":true,"rt":3177.9999999998836,"rot1":5,"rot2":25,"rot3":15,"rot4":-5,"rot5":-25,"rot6":-15,"dil1":1.075,"dil2":0.875,"dil3":1.025,"dil4":1.125,"dil5":0.975,"dil6":0.925,"rots":[5,25,15,-5,-25,-15],"dils":[1.075,0.875,1.025,1.125,0.975,0.925],"loop_number":"NA","everTouched":null},{"id":"test","shape":"random","outlier_type":0,"choice":2,"outlierPosition":2,"success":true,"majorityOfMostRegularShapes":true,"rt":2664.600000000064,"rot1":15,"rot2":-5,"rot3":-15,"rot4":25,"rot5":-25,"rot6":5,"dil1":0.925,"dil2":1.025,"dil3":0.975,"dil4":0.875,"dil5":1.125,"dil6":1.075,"rots":[15,-5,-15,25,-25,5],"dils":[0.925,1.025,0.975,0.875,1.125,1.075],"loop_number":"NA","everTouched":null},{"id":"test","shape":"kite","outlier_type":2,"choice":0,"outlierPosition":0,"success":true,"majorityOfMostRegularShapes":true,"rt":2510.6000000005297,"rot1":-15,"rot2":25,"rot3":5,"rot4":-25,"rot5":15,"rot6":-5,"dil1":1.025,"dil2":0.875,"dil3":0.975,"dil4":0.925,"dil5":1.075,"dil6":1.125,"rots":[-15,25,5,-25,15,-5],"dils":[1.025,0.875,0.975,0.925,1.075,1.125],"loop_number":"NA","everTouched":null},{"id":"test","shape":"square","outlier_type":1,"choice":0,"outlierPosition":0,"success":true,"majorityOfMostRegularShapes":true,"rt":1652.7000000005355,"rot1":5,"rot2":-15,"rot3":-5,"rot4":15,"rot5":-25,"rot6":25,"dil1":1.075,"dil2":1.125,"dil3":1.025,"dil4":0.975,"dil5":0.875,"dil6":0.925,"rots":[5,-15,-5,15,-25,25],"dils":[1.075,1.125,1.025,0.975,0.875,0.925],"loop_number":"NA","everTouched":null},{"id":"test","shape":"parallelogram","outlier_type":3,"choice":3,"outlierPosition":3,"success":true,"majorityOfMostRegularShapes":true,"rt":7377.099999999744,"rot1":25,"rot2":15,"rot3":-15,"rot4":-25,"rot5":5,"rot6":-5,"dil1":1.125,"dil2":0.875,"dil3":0.975,"dil4":0.925,"dil5":1.075,"dil6":1.025,"rots":[25,15,-15,-25,5,-5],"dils":[1.125,0.875,0.975,0.925,1.075,1.025],"loop_number":"NA","everTouched":null},{"id":"test","shape":"kite","outlier_type":1,"choice":1,"outlierPosition":4,"success":false,"majorityOfMostRegularShapes":true,"rt":3409.900000000547,"rot1":-15,"rot2":-25,"rot3":25,"rot4":5,"rot5":15,"rot6":-5,"dil1":0.875,"dil2":0.925,"dil3":1.125,"dil4":1.025,"dil5":1.075,"dil6":0.975,"rots":[-15,-25,25,5,15,-5],"dils":[0.875,0.925,1.125,1.025,1.075,0.975],"loop_number":"NA","everTouched":null},{"id":"test","shape":"kite","outlier_type":3,"choice":4,"outlierPosition":4,"success":true,"majorityOfMostRegularShapes":true,"rt":2933.1999999994878,"rot1":5,"rot2":-15,"rot3":-5,"rot4":-25,"rot5":25,"rot6":15,"dil1":1.025,"dil2":0.875,"dil3":1.125,"dil4":0.975,"dil5":1.075,"dil6":0.925,"rots":[5,-15,-5,-25,25,15],"dils":[1.025,0.875,1.125,0.975,1.075,0.925],"loop_number":"NA","everTouched":null},{"id":"test","shape":"parallelogram","outlier_type":2,"choice":2,"outlierPosition":2,"success":true,"majorityOfMostRegularShapes":true,"rt":3138.7999999997555,"rot1":5,"rot2":25,"rot3":-15,"rot4":-25,"rot5":-5,"rot6":15,"dil1":1.075,"dil2":0.975,"dil3":1.025,"dil4":0.875,"dil5":0.925,"dil6":1.125,"rots":[5,25,-15,-25,-5,15],"dils":[1.075,0.975,1.025,0.875,0.925,1.125],"loop_number":"NA","everTouched":null},{"id":"test","shape":"kite","outlier_type":0,"choice":1,"outlierPosition":4,"success":false,"majorityOfMostRegularShapes":true,"rt":3234.7000000000116,"rot1":5,"rot2":25,"rot3":-25,"rot4":-5,"rot5":15,"rot6":-15,"dil1":0.975,"dil2":1.025,"dil3":0.875,"dil4":1.125,"dil5":1.075,"dil6":0.925,"rots":[5,25,-25,-5,15,-15],"dils":[0.975,1.025,0.875,1.125,1.075,0.925],"loop_number":"NA","everTouched":null},{"id":"test","shape":"rustedHinge","outlier_type":1,"choice":2,"outlierPosition":4,"success":false,"majorityOfMostRegularShapes":true,"rt":9824.800000000338,"rot1":25,"rot2":-15,"rot3":15,"rot4":-25,"rot5":-5,"rot6":5,"dil1":1.025,"dil2":0.875,"dil3":0.925,"dil4":0.975,"dil5":1.075,"dil6":1.125,"rots":[25,-15,15,-25,-5,5],"dils":[1.025,0.875,0.925,0.975,1.075,1.125],"loop_number":"NA","everTouched":null},{"id":"test","shape":"trapezoid","outlier_type":3,"choice":5,"outlierPosition":5,"success":true,"majorityOfMostRegularShapes":true,"rt":2115.9000000006636,"rot1":5,"rot2":-25,"rot3":15,"rot4":25,"rot5":-5,"rot6":-15,"dil1":1.125,"dil2":1.025,"dil3":1.075,"dil4":0.975,"dil5":0.925,"dil6":0.875,"rots":[5,-25,15,25,-5,-15],"dils":[1.125,1.025,1.075,0.975,0.925,0.875],"loop_number":"NA","everTouched":null},{"id":"test","shape":"rightKite","outlier_type":0,"choice":4,"outlierPosition":4,"success":true,"majorityOfMostRegularShapes":true,"rt":2503.699999999255,"rot1":-25,"rot2":25,"rot3":5,"rot4":-5,"rot5":15,"rot6":-15,"dil1":1.075,"dil2":1.125,"dil3":1.025,"dil4":0.925,"dil5":0.875,"dil6":0.975,"rots":[-25,25,5,-5,15,-15],"dils":[1.075,1.125,1.025,0.925,0.875,0.975],"loop_number":"NA","everTouched":null},{"id":"test","shape":"square","outlier_type":2,"choice":5,"outlierPosition":5,"success":true,"majorityOfMostRegularShapes":true,"rt":2634.7999999998137,"rot1":15,"rot2":5,"rot3":-25,"rot4":-15,"rot5":25,"rot6":-5,"dil1":1.075,"dil2":1.125,"dil3":0.875,"dil4":0.925,"dil5":1.025,"dil6":0.975,"rots":[15,5,-25,-15,25,-5],"dils":[1.075,1.125,0.875,0.925,1.025,0.975],"loop_number":"NA","everTouched":null},{"id":"test","shape":"trapezoid","outlier_type":0,"choice":1,"outlierPosition":0,"success":false,"majorityOfMostRegularShapes":true,"rt":5338.7000000002445,"rot1":25,"rot2":-25,"rot3":5,"rot4":15,"rot5":-15,"rot6":-5,"dil1":1.125,"dil2":1.025,"dil3":0.975,"dil4":0.875,"dil5":0.925,"dil6":1.075,"rots":[25,-25,5,15,-15,-5],"dils":[1.125,1.025,0.975,0.875,0.925,1.075],"loop_number":"NA","everTouched":null},{"id":"test","shape":"rightKite","outlier_type":1,"choice":0,"outlierPosition":4,"success":false,"majorityOfMostRegularShapes":true,"rt":2333.499999999709,"rot1":15,"rot2":25,"rot3":-15,"rot4":-5,"rot5":5,"rot6":-25,"dil1":1.025,"dil2":0.875,"dil3":1.125,"dil4":1.075,"dil5":0.975,"dil6":0.925,"rots":[15,25,-15,-5,5,-25],"dils":[1.025,0.875,1.125,1.075,0.975,0.925],"loop_number":"NA","everTouched":null},{"id":"test","shape":"parallelogram","outlier_type":0,"choice":4,"outlierPosition":4,"success":true,"majorityOfMostRegularShapes":true,"rt":6850.9000000003725,"rot1":-5,"rot2":5,"rot3":-25,"rot4":25,"rot5":15,"rot6":-15,"dil1":0.925,"dil2":0.975,"dil3":1.025,"dil4":1.125,"dil5":0.875,"dil6":1.075,"rots":[-5,5,-25,25,15,-15],"dils":[0.925,0.975,1.025,1.125,0.875,1.075],"loop_number":"NA","everTouched":null},{"id":"test","shape":"losange","outlier_type":3,"choice":3,"outlierPosition":3,"success":true,"majorityOfMostRegularShapes":true,"rt":2621.100000000326,"rot1":15,"rot2":-15,"rot3":5,"rot4":25,"rot5":-25,"rot6":-5,"dil1":0.925,"dil2":0.975,"dil3":1.075,"dil4":1.025,"dil5":0.875,"dil6":1.125,"rots":[15,-15,5,25,-25,-5],"dils":[0.925,0.975,1.075,1.025,0.875,1.125],"loop_number":"NA","everTouched":null},{"id":"test","shape":"isoTrapezoid","outlier_type":0,"choice":3,"outlierPosition":3,"success":true,"majorityOfMostRegularShapes":true,"rt":9107.100000000151,"rot1":-25,"rot2":25,"rot3":5,"rot4":-15,"rot5":15,"rot6":-5,"dil1":0.925,"dil2":0.975,"dil3":1.125,"dil4":0.875,"dil5":1.075,"dil6":1.025,"rots":[-25,25,5,-15,15,-5],"dils":[0.925,0.975,1.125,0.875,1.075,1.025],"loop_number":"NA","everTouched":null},{"id":"test","shape":"rectangle","outlier_type":1,"choice":4,"outlierPosition":4,"success":true,"majorityOfMostRegularShapes":true,"rt":3288.7000000000116,"rot1":-25,"rot2":15,"rot3":-5,"rot4":5,"rot5":25,"rot6":-15,"dil1":1.125,"dil2":0.875,"dil3":1.075,"dil4":0.975,"dil5":0.925,"dil6":1.025,"rots":[-25,15,-5,5,25,-15],"dils":[1.125,0.875,1.075,0.975,0.925,1.025],"loop_number":"NA","everTouched":null}],"desiredDistance":0.3,"trial_type":"oddball-grid","trial_index":3,"time_elapsed":364910,"internal_node_id":"0.0-3.0","ID":"mbse2ual93"},{"success":true,"trial_type":"fullscreen","trial_index":4,"time_elapsed":371832,"internal_node_id":"0.0-4.0","ID":"mbse2ual93"}]