[{"success":true,"trial_type":"fullscreen","trial_index":0,"time_elapsed":16364,"internal_node_id":"0.0-0.0","ID":"vfdk659lm2"},{"results":[{"id":"train-images","shape":"9","outlier_type":"NA","choice":1,"outlierPosition":1,"success":true,"majorityOfMostRegularShapes":"NA","rt":8813.2999999998,"rot1":15,"rot2":25,"rot3":5,"rot4":-25,"rot5":-15,"rot6":-5,"dil1":0.925,"dil2":1.025,"dil3":0.975,"dil4":0.875,"dil5":1.075,"dil6":1.125,"rots":[15,25,5,-25,-15,-5],"dils":[0.925,1.025,0.975,0.875,1.075,1.125],"loop_number":1,"everTouched":null},{"id":"train-images","shape":"8","outlier_type":"NA","choice":3,"outlierPosition":3,"success":true,"majorityOfMostRegularShapes":"NA","rt":2578.9999999997235,"rot1":-15,"rot2":15,"rot3":-5,"rot4":5,"rot5":25,"rot6":-25,"dil1":1.125,"dil2":1.075,"dil3":0.975,"dil4":0.925,"dil5":0.875,"dil6":1.025,"rots":[-15,15,-5,5,25,-25],"dils":[1.125,1.075,0.975,0.925,0.875,1.025],"loop_number":1,"everTouched":null},{"id":"train-images","shape":"3","outlier_type":"NA","choice":3,"outlierPosition":3,"success":true,"majorityOfMostRegularShapes":"NA","rt":1912.899999999354,"rot1":-15,"rot2":25,"rot3":-25,"rot4":15,"rot5":5,"rot6":-5,"dil1":0.875,"dil2":0.925,"dil3":0.975,"dil4":1.125,"dil5":1.025,"dil6":1.075,"rots":[-15,25,-25,15,5,-5],"dils":[0.875,0.925,0.975,1.125,1.025,1.075],"loop_number":1,"everTouched":null},{"id":"train-images","shape":"4","outlier_type":"NA","choice":3,"outlierPosition":3,"success":true,"majorityOfMostRegularShapes":"NA","rt":2360.6999999992695,"rot1":-5,"rot2":-25,"rot3":25,"rot4":5,"rot5":-15,"rot6":15,"dil1":0.925,"dil2":0.875,"dil3":0.975,"dil4":1.075,"dil5":1.125,"dil6":1.025,"rots":[-5,-25,25,5,-15,15],"dils":[0.925,0.875,0.975,1.075,1.125,1.025],"loop_number":1,"everTouched":null},{"id":"train-images","shape":"5","outlier_type":"NA","choice":0,"outlierPosition":0,"success":true,"majorityOfMostRegularShapes":"NA","rt":1565.3999999994994,"rot1":-15,"rot2":15,"rot3":5,"rot4":25,"rot5":-5,"rot6":-25,"dil1":0.925,"dil2":0.975,"dil3":1.075,"dil4":0.875,"dil5":1.025,"dil6":1.125,"rots":[-15,15,5,25,-5,-25],"dils":[0.925,0.975,1.075,0.875,1.025,1.125],"loop_number":1,"everTouched":null},{"id":"train-images","shape":"10","outlier_type":"NA","choice":2,"outlierPosition":2,"success":true,"majorityOfMostRegularShapes":"NA","rt":1579.9000000006345,"rot1":-25,"rot2":5,"rot3":15,"rot4":25,"rot5":-5,"rot6":-15,"dil1":0.925,"dil2":1.125,"dil3":1.025,"dil4":0.875,"dil5":1.075,"dil6":0.975,"rots":[-25,5,15,25,-5,-15],"dils":[0.925,1.125,1.025,0.875,1.075,0.975],"loop_number":1,"everTouched":null},{"id":"train-images","shape":"7","outlier_type":"NA","choice":5,"outlierPosition":5,"success":true,"majorityOfMostRegularShapes":"NA","rt":1305.2000000006956,"rot1":5,"rot2":-15,"rot3":-5,"rot4":15,"rot5":-25,"rot6":25,"dil1":0.875,"dil2":1.025,"dil3":1.075,"dil4":1.125,"dil5":0.975,"dil6":0.925,"rots":[5,-15,-5,15,-25,25],"dils":[0.875,1.025,1.075,1.125,0.975,0.925],"loop_number":1,"everTouched":null},{"id":"train-images","shape":"2","outlier_type":"NA","choice":4,"outlierPosition":4,"success":true,"majorityOfMostRegularShapes":"NA","rt":1137.300000000323,"rot1":-25,"rot2":-15,"rot3":25,"rot4":5,"rot5":15,"rot6":-5,"dil1":0.975,"dil2":1.125,"dil3":1.025,"dil4":0.925,"dil5":1.075,"dil6":0.875,"rots":[-25,-15,25,5,15,-5],"dils":[0.975,1.125,1.025,0.925,1.075,0.875],"loop_number":1,"everTouched":null},{"id":"train-images","shape":"6","outlier_type":"NA","choice":1,"outlierPosition":1,"success":true,"majorityOfMostRegularShapes":"NA","rt":1453.1000000006316,"rot1":-25,"rot2":15,"rot3":5,"rot4":25,"rot5":-15,"rot6":-5,"dil1":1.075,"dil2":1.025,"dil3":0.925,"dil4":1.125,"dil5":0.875,"dil6":0.975,"rots":[-25,15,5,25,-15,-5],"dils":[1.075,1.025,0.925,1.125,0.875,0.975],"loop_number":1,"everTouched":null},{"id":"train-images","shape":"1","outlier_type":"NA","choice":4,"outlierPosition":4,"success":true,"majorityOfMostRegularShapes":"NA","rt":1167.699999999968,"rot1":5,"rot2":25,"rot3":-15,"rot4":-5,"rot5":-25,"rot6":15,"dil1":0.925,"dil2":0.875,"dil3":1.125,"dil4":1.025,"dil5":1.075,"dil6":0.975,"rots":[5,25,-15,-5,-25,15],"dils":[0.925,0.875,1.125,1.025,1.075,0.975],"loop_number":1,"everTouched":null}],"trial_type":"oddball-grid-image","trial_index":1,"time_elapsed":69664,"internal_node_id":"0.0-1.0","ID":"vfdk659lm2"},{"results":[{"id":"train","shape":null,"outlier_type":null,"choice":4,"outlierPosition":3,"success":false,"majorityOfMostRegularShapes":null,"rt":2247.300000000905,"rot1":5,"rot2":-5,"rot3":-25,"rot4":-15,"rot5":15,"rot6":25,"dil1":0.875,"dil2":1.125,"dil3":0.925,"dil4":1.025,"dil5":0.975,"dil6":1.075,"rots":[5,-5,-25,-15,15,25],"dils":[0.875,1.125,0.925,1.025,0.975,1.075],"loop_number":1,"everTouched":null},{"id":"train","shape":null,"outlier_type":null,"choice":5,"outlierPosition":5,"success":true,"majorityOfMostRegularShapes":null,"rt":4014.600000000428,"rot1":15,"rot2":-25,"rot3":-15,"rot4":-5,"rot5":25,"rot6":5,"dil1":0.925,"dil2":1.025,"dil3":1.075,"dil4":0.975,"dil5":0.875,"dil6":1.125,"rots":[15,-25,-15,-5,25,5],"dils":[0.925,1.025,1.075,0.975,0.875,1.125],"loop_number":1,"everTouched":null},{"id":"train","shape":null,"outlier_type":null,"choice":4,"outlierPosition":4,"success":true,"majorityOfMostRegularShapes":null,"rt":2130.9999999994034,"rot1":-15,"rot2":25,"rot3":5,"rot4":-25,"rot5":-5,"rot6":15,"dil1":1.075,"dil2":0.925,"dil3":0.875,"dil4":1.125,"dil5":0.975,"dil6":1.025,"rots":[-15,25,5,-25,-5,15],"dils":[1.075,0.925,0.875,1.125,0.975,1.025],"loop_number":1,"everTouched":null},{"id":"train","shape":null,"outlier_type":null,"choice":4,"outlierPosition":4,"success":true,"majorityOfMostRegularShapes":null,"rt":1793.2000000000698,"rot1":-15,"rot2":-5,"rot3":25,"rot4":-25,"rot5":5,"rot6":15,"dil1":0.925,"dil2":1.075,"dil3":0.875,"dil4":0.975,"dil5":1.025,"dil6":1.125,"rots":[-15,-5,25,-25,5,15],"dils":[0.925,1.075,0.875,0.975,1.025,1.125],"loop_number":1,"everTouched":null},{"id":"train","shape":null,"outlier_type":null,"choice":3,"outlierPosition":3,"success":true,"majorityOfMostRegularShapes":null,"rt":2077.2999999990134,"rot1":-15,"rot2":25,"rot3":5,"rot4":15,"rot5":-25,"rot6":-5,"dil1":0.975,"dil2":1.125,"dil3":1.075,"dil4":0.925,"dil5":1.025,"dil6":0.875,"rots":[-15,25,5,15,-25,-5],"dils":[0.975,1.125,1.075,0.925,1.025,0.875],"loop_number":1,"everTouched":null},{"id":"train","shape":null,"outlier_type":null,"choice":2,"outlierPosition":2,"success":true,"majorityOfMostRegularShapes":null,"rt":3632.7000000001135,"rot1":-15,"rot2":25,"rot3":15,"rot4":5,"rot5":-25,"rot6":-5,"dil1":1.025,"dil2":1.075,"dil3":0.975,"dil4":0.875,"dil5":1.125,"dil6":0.925,"rots":[-15,25,15,5,-25,-5],"dils":[1.025,1.075,0.975,0.875,1.125,0.925],"loop_number":1,"everTouched":null}],"desiredDistance":0.3,"trial_type":"oddball-grid-easy","trial_index":2,"time_elapsed":99146,"internal_node_id":"0.0-2.0","ID":"vfdk659lm2"},{"results":[{"id":"test","shape":"rectangle","outlier_type":0,"choice":3,"outlierPosition":3,"success":true,"majorityOfMostRegularShapes":true,"rt":1390.4999999995198,"rot1":-5,"rot2":-15,"rot3":-25,"rot4":25,"rot5":15,"rot6":5,"dil1":0.975,"dil2":1.025,"dil3":0.875,"dil4":1.125,"dil5":1.075,"dil6":0.925,"rots":[-5,-15,-25,25,15,5],"dils":[0.975,1.025,0.875,1.125,1.075,0.925],"loop_number":"NA","everTouched":null},{"id":"test","shape":"isoTrapezoid","outlier_type":1,"choice":0,"outlierPosition":0,"success":true,"majorityOfMostRegularShapes":true,"rt":2684.899999998379,"rot1":-15,"rot2":-25,"rot3":-5,"rot4":15,"rot5":5,"rot6":25,"dil1":0.975,"dil2":1.075,"dil3":1.125,"dil4":0.925,"dil5":1.025,"dil6":0.875,"rots":[-15,-25,-5,15,5,25],"dils":[0.975,1.075,1.125,0.925,1.025,0.875],"loop_number":"NA","everTouched":null},{"id":"test","shape":"rustedHinge","outlier_type":3,"choice":2,"outlierPosition":5,"success":false,"majorityOfMostRegularShapes":true,"rt":1555.8000000000902,"rot1":-5,"rot2":-15,"rot3":25,"rot4":15,"rot5":-25,"rot6":5,"dil1":1.025,"dil2":0.975,"dil3":0.925,"dil4":0.875,"dil5":1.075,"dil6":1.125,"rots":[-5,-15,25,15,-25,5],"dils":[1.025,0.975,0.925,0.875,1.075,1.125],"loop_number":"NA","everTouched":null},{"id":"test","shape":"parallelogram","outlier_type":0,"choice":4,"outlierPosition":4,"success":true,"majorityOfMostRegularShapes":true,"rt":3193.699999999808,"rot1":25,"rot2":-15,"rot3":5,"rot4":-5,"rot5":15,"rot6":-25,"dil1":1.025,"dil2":1.125,"dil3":1.075,"dil4":0.875,"dil5":0.925,"dil6":0.975,"rots":[25,-15,5,-5,15,-25],"dils":[1.025,1.125,1.075,0.875,0.925,0.975],"loop_number":"NA","everTouched":null},{"id":"test","shape":"random","outlier_type":3,"choice":2,"outlierPosition":4,"success":false,"majorityOfMostRegularShapes":true,"rt":2014.3000000007305,"rot1":15,"rot2":-15,"rot3":-25,"rot4":-5,"rot5":5,"rot6":25,"dil1":1.025,"dil2":0.975,"dil3":1.075,"dil4":0.925,"dil5":1.125,"dil6":0.875,"rots":[15,-15,-25,-5,5,25],"dils":[1.025,0.975,1.075,0.925,1.125,0.875],"loop_number":"NA","everTouched":null},{"id":"test","shape":"square","outlier_type":1,"choice":4,"outlierPosition":4,"success":true,"majorityOfMostRegularShapes":true,"rt":3164.5000000007713,"rot1":25,"rot2":5,"rot3":-15,"rot4":15,"rot5":-5,"rot6":-25,"dil1":0.875,"dil2":0.925,"dil3":0.975,"dil4":1.075,"dil5":1.125,"dil6":1.025,"rots":[25,5,-15,15,-5,-25],"dils":[0.875,0.925,0.975,1.075,1.125,1.025],"loop_number":"NA","everTouched":null},{"id":"test","shape":"isoTrapezoid","outlier_type":3,"choice":1,"outlierPosition":1,"success":true,"majorityOfMostRegularShapes":true,"rt":2662.5999999996566,"rot1":25,"rot2":-15,"rot3":-5,"rot4":5,"rot5":15,"rot6":-25,"dil1":0.975,"dil2":1.075,"dil3":1.025,"dil4":0.925,"dil5":0.875,"dil6":1.125,"rots":[25,-15,-5,5,15,-25],"dils":[0.975,1.075,1.025,0.925,0.875,1.125],"loop_number":"NA","everTouched":null},{"id":"test","shape":"kite","outlier_type":1,"choice":0,"outlierPosition":5,"success":false,"majorityOfMostRegularShapes":true,"rt":5221.599999998958,"rot1":-25,"rot2":15,"rot3":-15,"rot4":5,"rot5":-5,"rot6":25,"dil1":0.975,"dil2":0.875,"dil3":1.125,"dil4":0.925,"dil5":1.075,"dil6":1.025,"rots":[-25,15,-15,5,-5,25],"dils":[0.975,0.875,1.125,0.925,1.075,1.025],"loop_number":"NA","everTouched":null},{"id":"test","shape":"hinge","outlier_type":2,"choice":3,"outlierPosition":4,"success":false,"majorityOfMostRegularShapes":true,"rt":3709.6000000001222,"rot1":-15,"rot2":25,"rot3":15,"rot4":-25,"rot5":-5,"rot6":5,"dil1":0.975,"dil2":0.875,"dil3":0.925,"dil4":1.025,"dil5":1.125,"dil6":1.075,"rots":[-15,25,15,-25,-5,5],"dils":[0.975,0.875,0.925,1.025,1.125,1.075],"loop_number":"NA","everTouched":null},{"id":"test","shape":"rustedHinge","outlier_type":1,"choice":1,"outlierPosition":3,"success":false,"majorityOfMostRegularShapes":true,"rt":2563.0999999993946,"rot1":-25,"rot2":25,"rot3":-15,"rot4":-5,"rot5":15,"rot6":5,"dil1":1.025,"dil2":0.875,"dil3":1.125,"dil4":0.975,"dil5":1.075,"dil6":0.925,"rots":[-25,25,-15,-5,15,5],"dils":[1.025,0.875,1.125,0.975,1.075,0.925],"loop_number":"NA","everTouched":null},{"id":"test","shape":"losange","outlier_type":2,"choice":1,"outlierPosition":3,"success":false,"majorityOfMostRegularShapes":true,"rt":7537.299999999959,"rot1":5,"rot2":-15,"rot3":-5,"rot4":25,"rot5":15,"rot6":-25,"dil1":1.075,"dil2":0.875,"dil3":0.925,"dil4":1.125,"dil5":1.025,"dil6":0.975,"rots":[5,-15,-5,25,15,-25],"dils":[1.075,0.875,0.925,1.125,1.025,0.975],"loop_number":"NA","everTouched":null},{"id":"test","shape":"kite","outlier_type":0,"choice":5,"outlierPosition":5,"success":true,"majorityOfMostRegularShapes":true,"rt":4752.700000000885,"rot1":-15,"rot2":-25,"rot3":5,"rot4":15,"rot5":-5,"rot6":25,"dil1":1.125,"dil2":0.875,"dil3":1.025,"dil4":1.075,"dil5":0.925,"dil6":0.975,"rots":[-15,-25,5,15,-5,25],"dils":[1.125,0.875,1.025,1.075,0.925,0.975],"loop_number":"NA","everTouched":null},{"id":"test","shape":"rustedHinge","outlier_type":2,"choice":2,"outlierPosition":0,"success":false,"majorityOfMostRegularShapes":true,"rt":1925.7999999990861,"rot1":-15,"rot2":15,"rot3":5,"rot4":-25,"rot5":25,"rot6":-5,"dil1":1.075,"dil2":1.025,"dil3":0.875,"dil4":0.925,"dil5":0.975,"dil6":1.125,"rots":[-15,15,5,-25,25,-5],"dils":[1.075,1.025,0.875,0.925,0.975,1.125],"loop_number":"NA","everTouched":null},{"id":"test","shape":"rectangle","outlier_type":3,"choice":5,"outlierPosition":5,"success":true,"majorityOfMostRegularShapes":true,"rt":3485.7000000010594,"rot1":-5,"rot2":-25,"rot3":25,"rot4":-15,"rot5":5,"rot6":15,"dil1":1.125,"dil2":0.975,"dil3":1.025,"dil4":0.875,"dil5":1.075,"dil6":0.925,"rots":[-5,-25,25,-15,5,15],"dils":[1.125,0.975,1.025,0.875,1.075,0.925],"loop_number":"NA","everTouched":null},{"id":"test","shape":"rightKite","outlier_type":2,"choice":4,"outlierPosition":5,"success":false,"majorityOfMostRegularShapes":true,"rt":3736.2999999986787,"rot1":5,"rot2":-25,"rot3":25,"rot4":-5,"rot5":-15,"rot6":15,"dil1":1.025,"dil2":1.125,"dil3":0.975,"dil4":0.875,"dil5":0.925,"dil6":1.075,"rots":[5,-25,25,-5,-15,15],"dils":[1.025,1.125,0.975,0.875,0.925,1.075],"loop_number":"NA","everTouched":null},{"id":"test","shape":"parallelogram","outlier_type":3,"choice":0,"outlierPosition":0,"success":true,"majorityOfMostRegularShapes":true,"rt":2891.800000001269,"rot1":-15,"rot2":5,"rot3":25,"rot4":-25,"rot5":-5,"rot6":15,"dil1":0.875,"dil2":0.975,"dil3":1.025,"dil4":1.075,"dil5":1.125,"dil6":0.925,"rots":[-15,5,25,-25,-5,15],"dils":[0.875,0.975,1.025,1.075,1.125,0.925],"loop_number":"NA","everTouched":null},{"id":"test","shape":"rectangle","outlier_type":1,"choice":0,"outlierPosition":0,"success":true,"majorityOfMostRegularShapes":true,"rt":2776.399999998859,"rot1":5,"rot2":-25,"rot3":-5,"rot4":25,"rot5":15,"rot6":-15,"dil1":0.925,"dil2":0.875,"dil3":1.025,"dil4":0.975,"dil5":1.125,"dil6":1.075,"rots":[5,-25,-5,25,15,-15],"dils":[0.925,0.875,1.025,0.975,1.125,1.075],"loop_number":"NA","everTouched":null},{"id":"test","shape":"square","outlier_type":2,"choice":3,"outlierPosition":3,"success":true,"majorityOfMostRegularShapes":true,"rt":1691.300000000425,"rot1":25,"rot2":-15,"rot3":-25,"rot4":5,"rot5":15,"rot6":-5,"dil1":0.875,"dil2":0.975,"dil3":1.125,"dil4":0.925,"dil5":1.075,"dil6":1.025,"rots":[25,-15,-25,5,15,-5],"dils":[0.875,0.975,1.125,0.925,1.075,1.025],"loop_number":"NA","everTouched":null},{"id":"test","shape":"rightKite","outlier_type":0,"choice":4,"outlierPosition":3,"success":false,"majorityOfMostRegularShapes":true,"rt":3825.4999999990105,"rot1":-15,"rot2":-5,"rot3":5,"rot4":15,"rot5":25,"rot6":-25,"dil1":1.075,"dil2":1.025,"dil3":0.975,"dil4":0.875,"dil5":0.925,"dil6":1.125,"rots":[-15,-5,5,15,25,-25],"dils":[1.075,1.025,0.975,0.875,0.925,1.125],"loop_number":"NA","everTouched":null},{"id":"test","shape":"parallelogram","outlier_type":1,"choice":4,"outlierPosition":4,"success":true,"majorityOfMostRegularShapes":true,"rt":2064.5000000004075,"rot1":15,"rot2":-5,"rot3":5,"rot4":-15,"rot5":25,"rot6":-25,"dil1":0.975,"dil2":0.875,"dil3":1.025,"dil4":1.075,"dil5":0.925,"dil6":1.125,"rots":[15,-5,5,-15,25,-25],"dils":[0.975,0.875,1.025,1.075,0.925,1.125],"loop_number":"NA","everTouched":null},{"id":"test","shape":"hinge","outlier_type":0,"choice":4,"outlierPosition":5,"success":false,"majorityOfMostRegularShapes":true,"rt":4367.599999999569,"rot1":5,"rot2":-5,"rot3":25,"rot4":-25,"rot5":15,"rot6":-15,"dil1":1.025,"dil2":0.875,"dil3":1.075,"dil4":0.925,"dil5":1.125,"dil6":0.975,"rots":[5,-5,25,-25,15,-15],"dils":[1.025,0.875,1.075,0.925,1.125,0.975],"loop_number":"NA","everTouched":null},{"id":"test","shape":"trapezoid","outlier_type":2,"choice":2,"outlierPosition":0,"success":false,"majorityOfMostRegularShapes":true,"rt":2133.2999999994936,"rot1":5,"rot2":25,"rot3":-25,"rot4":15,"rot5":-5,"rot6":-15,"dil1":1.025,"dil2":1.075,"dil3":0.875,"dil4":1.125,"dil5":0.975,"dil6":0.925,"rots":[5,25,-25,15,-5,-15],"dils":[1.025,1.075,0.875,1.125,0.975,0.925],"loop_number":"NA","everTouched":null},{"id":"test","shape":"losange","outlier_type":3,"choice":4,"outlierPosition":4,"success":true,"majorityOfMostRegularShapes":true,"rt":2532.6999999997497,"rot1":25,"rot2":-15,"rot3":5,"rot4":15,"rot5":-25,"rot6":-5,"dil1":1.075,"dil2":1.125,"dil3":0.925,"dil4":0.975,"dil5":0.875,"dil6":1.025,"rots":[25,-15,5,15,-25,-5],"dils":[1.075,1.125,0.925,0.975,0.875,1.025],"loop_number":"NA","everTouched":null},{"id":"test","shape":"isoTrapezoid","outlier_type":0,"choice":4,"outlierPosition":1,"success":false,"majorityOfMostRegularShapes":true,"rt":2376.999999998574,"rot1":-25,"rot2":5,"rot3":-15,"rot4":25,"rot5":15,"rot6":-5,"dil1":0.975,"dil2":0.925,"dil3":1.075,"dil4":1.025,"dil5":0.875,"dil6":1.125,"rots":[-25,5,-15,25,15,-5],"dils":[0.975,0.925,1.075,1.025,0.875,1.125],"loop_number":"NA","everTouched":null},{"id":"test","shape":"rightKite","outlier_type":1,"choice":3,"outlierPosition":3,"success":true,"majorityOfMostRegularShapes":true,"rt":2940.4999999988067,"rot1":-25,"rot2":-5,"rot3":25,"rot4":5,"rot5":-15,"rot6":15,"dil1":0.975,"dil2":1.025,"dil3":1.125,"dil4":0.875,"dil5":0.925,"dil6":1.075,"rots":[-25,-5,25,5,-15,15],"dils":[0.975,1.025,1.125,0.875,0.925,1.075],"loop_number":"NA","everTouched":null},{"id":"test","shape":"random","outlier_type":0,"choice":5,"outlierPosition":0,"success":false,"majorityOfMostRegularShapes":true,"rt":3837.8000000011525,"rot1":15,"rot2":-25,"rot3":-5,"rot4":-15,"rot5":5,"rot6":25,"dil1":1.125,"dil2":1.025,"dil3":0.925,"dil4":0.975,"dil5":1.075,"dil6":0.875,"rots":[15,-25,-5,-15,5,25],"dils":[1.125,1.025,0.925,0.975,1.075,0.875],"loop_number":"NA","everTouched":null},{"id":"test","shape":"hinge","outlier_type":1,"choice":3,"outlierPosition":5,"success":false,"majorityOfMostRegularShapes":true,"rt":5842.000000000524,"rot1":-15,"rot2":15,"rot3":-25,"rot4":25,"rot5":5,"rot6":-5,"dil1":1.075,"dil2":1.025,"dil3":0.875,"dil4":0.925,"dil5":1.125,"dil6":0.975,"rots":[-15,15,-25,25,5,-5],"dils":[1.075,1.025,0.875,0.925,1.125,0.975],"loop_number":"NA","everTouched":null},{"id":"test","shape":"trapezoid","outlier_type":0,"choice":0,"outlierPosition":4,"success":false,"majorityOfMostRegularShapes":true,"rt":7096.100000000646,"rot1":15,"rot2":25,"rot3":-5,"rot4":-25,"rot5":5,"rot6":-15,"dil1":0.875,"dil2":1.125,"dil3":0.975,"dil4":1.075,"dil5":0.925,"dil6":1.025,"rots":[15,25,-5,-25,5,-15],"dils":[0.875,1.125,0.975,1.075,0.925,1.025],"loop_number":"NA","everTouched":null},{"id":"test","shape":"random","outlier_type":1,"choice":4,"outlierPosition":3,"success":false,"majorityOfMostRegularShapes":true,"rt":3336.299999998999,"rot1":15,"rot2":25,"rot3":-15,"rot4":5,"rot5":-25,"rot6":-5,"dil1":1.025,"dil2":1.125,"dil3":0.925,"dil4":1.075,"dil5":0.875,"dil6":0.975,"rots":[15,25,-15,5,-25,-5],"dils":[1.025,1.125,0.925,1.075,0.875,0.975],"loop_number":"NA","everTouched":null},{"id":"test","shape":"kite","outlier_type":2,"choice":4,"outlierPosition":1,"success":false,"majorityOfMostRegularShapes":true,"rt":3435.9000000003725,"rot1":-25,"rot2":25,"rot3":15,"rot4":-15,"rot5":-5,"rot6":5,"dil1":1.075,"dil2":1.025,"dil3":0.975,"dil4":0.925,"dil5":0.875,"dil6":1.125,"rots":[-25,25,15,-15,-5,5],"dils":[1.075,1.025,0.975,0.925,0.875,1.125],"loop_number":"NA","everTouched":null},{"id":"test","shape":"rustedHinge","outlier_type":0,"choice":5,"outlierPosition":5,"success":true,"majorityOfMostRegularShapes":true,"rt":3110.200000001001,"rot1":-15,"rot2":15,"rot3":-5,"rot4":5,"rot5":25,"rot6":-25,"dil1":0.975,"dil2":1.075,"dil3":0.875,"dil4":1.125,"dil5":0.925,"dil6":1.025,"rots":[-15,15,-5,5,25,-25],"dils":[0.975,1.075,0.875,1.125,0.925,1.025],"loop_number":"NA","everTouched":null},{"id":"test","shape":"trapezoid","outlier_type":3,"choice":4,"outlierPosition":4,"success":true,"majorityOfMostRegularShapes":true,"rt":8163.999999998836,"rot1":5,"rot2":-5,"rot3":25,"rot4":-15,"rot5":15,"rot6":-25,"dil1":0.925,"dil2":1.025,"dil3":1.125,"dil4":0.875,"dil5":0.975,"dil6":1.075,"rots":[5,-5,25,-15,15,-25],"dils":[0.925,1.025,1.125,0.875,0.975,1.075],"loop_number":"NA","everTouched":null},{"id":"test","shape":"parallelogram","outlier_type":2,"choice":1,"outlierPosition":1,"success":true,"majorityOfMostRegularShapes":true,"rt":2875.0999999993364,"rot1":15,"rot2":25,"rot3":5,"rot4":-25,"rot5":-15,"rot6":-5,"dil1":0.925,"dil2":1.125,"dil3":0.975,"dil4":1.025,"dil5":1.075,"dil6":0.875,"rots":[15,25,5,-25,-15,-5],"dils":[0.925,1.125,0.975,1.025,1.075,0.875],"loop_number":"NA","everTouched":null},{"id":"test","shape":"losange","outlier_type":1,"choice":3,"outlierPosition":3,"success":true,"majorityOfMostRegularShapes":true,"rt":5415.70000000135,"rot1":-5,"rot2":-25,"rot3":-15,"rot4":15,"rot5":5,"rot6":25,"dil1":1.075,"dil2":0.875,"dil3":0.975,"dil4":1.125,"dil5":1.025,"dil6":0.925,"rots":[-5,-25,-15,15,5,25],"dils":[1.075,0.875,0.975,1.125,1.025,0.925],"loop_number":"NA","everTouched":null},{"id":"test","shape":"isoTrapezoid","outlier_type":2,"choice":1,"outlierPosition":1,"success":true,"majorityOfMostRegularShapes":true,"rt":3139.100000000326,"rot1":-25,"rot2":25,"rot3":-5,"rot4":15,"rot5":-15,"rot6":5,"dil1":1.125,"dil2":0.925,"dil3":1.025,"dil4":1.075,"dil5":0.875,"dil6":0.975,"rots":[-25,25,-5,15,-15,5],"dils":[1.125,0.925,1.025,1.075,0.875,0.975],"loop_number":"NA","everTouched":null},{"id":"test","shape":"kite","outlier_type":3,"choice":1,"outlierPosition":1,"success":true,"majorityOfMostRegularShapes":true,"rt":4166.900000000198,"rot1":-5,"rot2":15,"rot3":-15,"rot4":5,"rot5":-25,"rot6":25,"dil1":0.875,"dil2":0.975,"dil3":1.025,"dil4":0.925,"dil5":1.125,"dil6":1.075,"rots":[-5,15,-15,5,-25,25],"dils":[0.875,0.975,1.025,0.925,1.125,1.075],"loop_number":"NA","everTouched":null},{"id":"test","shape":"random","outlier_type":2,"choice":2,"outlierPosition":2,"success":true,"majorityOfMostRegularShapes":true,"rt":2648.300000000745,"rot1":-15,"rot2":5,"rot3":-25,"rot4":25,"rot5":15,"rot6":-5,"dil1":0.875,"dil2":1.025,"dil3":1.125,"dil4":0.925,"dil5":0.975,"dil6":1.075,"rots":[-15,5,-25,25,15,-5],"dils":[0.875,1.025,1.125,0.925,0.975,1.075],"loop_number":"NA","everTouched":null},{"id":"test","shape":"hinge","outlier_type":3,"choice":0,"outlierPosition":1,"success":false,"majorityOfMostRegularShapes":true,"rt":5631.100000000501,"rot1":25,"rot2":5,"rot3":15,"rot4":-15,"rot5":-5,"rot6":-25,"dil1":0.925,"dil2":1.025,"dil3":0.975,"dil4":1.125,"dil5":0.875,"dil6":1.075,"rots":[25,5,15,-15,-5,-25],"dils":[0.925,1.025,0.975,1.125,0.875,1.075],"loop_number":"NA","everTouched":null},{"id":"test","shape":"trapezoid","outlier_type":1,"choice":4,"outlierPosition":4,"success":true,"majorityOfMostRegularShapes":true,"rt":1754.3999999997905,"rot1":-5,"rot2":25,"rot3":5,"rot4":-15,"rot5":-25,"rot6":15,"dil1":1.075,"dil2":1.125,"dil3":0.875,"dil4":0.975,"dil5":0.925,"dil6":1.025,"rots":[-5,25,5,-15,-25,15],"dils":[1.075,1.125,0.875,0.975,0.925,1.025],"loop_number":"NA","everTouched":null},{"id":"test","shape":"rectangle","outlier_type":2,"choice":5,"outlierPosition":5,"success":true,"majorityOfMostRegularShapes":true,"rt":3239.2000000000116,"rot1":-15,"rot2":15,"rot3":25,"rot4":5,"rot5":-25,"rot6":-5,"dil1":0.975,"dil2":0.875,"dil3":0.925,"dil4":1.025,"dil5":1.075,"dil6":1.125,"rots":[-15,15,25,5,-25,-5],"dils":[0.975,0.875,0.925,1.025,1.075,1.125],"loop_number":"NA","everTouched":null},{"id":"test","shape":"losange","outlier_type":0,"choice":4,"outlierPosition":4,"success":true,"majorityOfMostRegularShapes":true,"rt":3996.6999999997206,"rot1":25,"rot2":-15,"rot3":-25,"rot4":5,"rot5":-5,"rot6":15,"dil1":1.025,"dil2":0.925,"dil3":0.975,"dil4":1.075,"dil5":1.125,"dil6":0.875,"rots":[25,-15,-25,5,-5,15],"dils":[1.025,0.925,0.975,1.075,1.125,0.875],"loop_number":"NA","everTouched":null},{"id":"test","shape":"rightKite","outlier_type":3,"choice":4,"outlierPosition":0,"success":false,"majorityOfMostRegularShapes":true,"rt":2678.90000000078,"rot1":-15,"rot2":15,"rot3":5,"rot4":25,"rot5":-25,"rot6":-5,"dil1":0.975,"dil2":1.025,"dil3":1.125,"dil4":0.875,"dil5":1.075,"dil6":0.925,"rots":[-15,15,5,25,-25,-5],"dils":[0.975,1.025,1.125,0.875,1.075,0.925],"loop_number":"NA","everTouched":null},{"id":"test","shape":"square","outlier_type":0,"choice":4,"outlierPosition":5,"success":false,"majorityOfMostRegularShapes":true,"rt":2052.2999999994063,"rot1":25,"rot2":-15,"rot3":-25,"rot4":5,"rot5":-5,"rot6":15,"dil1":0.875,"dil2":0.925,"dil3":0.975,"dil4":1.025,"dil5":1.125,"dil6":1.075,"rots":[25,-15,-25,5,-5,15],"dils":[0.875,0.925,0.975,1.025,1.125,1.075],"loop_number":"NA","everTouched":null},{"id":"test","shape":"square","outlier_type":3,"choice":4,"outlierPosition":4,"success":true,"majorityOfMostRegularShapes":true,"rt":2300.3000000008033,"rot1":-5,"rot2":5,"rot3":25,"rot4":-25,"rot5":-15,"rot6":15,"dil1":0.975,"dil2":0.875,"dil3":1.125,"dil4":0.925,"dil5":1.025,"dil6":1.075,"rots":[-5,5,25,-25,-15,15],"dils":[0.975,0.875,1.125,0.925,1.025,1.075],"loop_number":"NA","everTouched":null}],"desiredDistance":0.3,"trial_type":"oddball-grid","trial_index":3,"time_elapsed":359297,"internal_node_id":"0.0-3.0","ID":"vfdk659lm2"},{"success":true,"trial_type":"fullscreen","trial_index":4,"time_elapsed":365001,"internal_node_id":"0.0-4.0","ID":"vfdk659lm2"}]