[{"success":true,"trial_type":"fullscreen","trial_index":0,"time_elapsed":21890,"internal_node_id":"0.0-0.0","ID":"dmcfba923s"},{"results":[{"id":"train-images","shape":"9","outlier_type":"NA","choice":4,"outlierPosition":4,"success":true,"majorityOfMostRegularShapes":"NA","rt":7797.700000000987,"rot1":-25,"rot2":15,"rot3":5,"rot4":-5,"rot5":25,"rot6":-15,"dil1":0.925,"dil2":1.125,"dil3":0.875,"dil4":1.075,"dil5":1.025,"dil6":0.975,"rots":[-25,15,5,-5,25,-15],"dils":[0.925,1.125,0.875,1.075,1.025,0.975],"loop_number":1,"everTouched":null},{"id":"train-images","shape":"2","outlier_type":"NA","choice":2,"outlierPosition":2,"success":true,"majorityOfMostRegularShapes":"NA","rt":2072.7999999999156,"rot1":25,"rot2":5,"rot3":-15,"rot4":-5,"rot5":15,"rot6":-25,"dil1":0.975,"dil2":0.875,"dil3":1.075,"dil4":1.025,"dil5":1.125,"dil6":0.925,"rots":[25,5,-15,-5,15,-25],"dils":[0.975,0.875,1.075,1.025,1.125,0.925],"loop_number":1,"everTouched":null},{"id":"train-images","shape":"8","outlier_type":"NA","choice":0,"outlierPosition":0,"success":true,"majorityOfMostRegularShapes":"NA","rt":2053.0000000017026,"rot1":-15,"rot2":-25,"rot3":5,"rot4":25,"rot5":15,"rot6":-5,"dil1":0.975,"dil2":0.875,"dil3":1.025,"dil4":1.125,"dil5":0.925,"dil6":1.075,"rots":[-15,-25,5,25,15,-5],"dils":[0.975,0.875,1.025,1.125,0.925,1.075],"loop_number":1,"everTouched":null},{"id":"train-images","shape":"6","outlier_type":"NA","choice":4,"outlierPosition":4,"success":true,"majorityOfMostRegularShapes":"NA","rt":5208.89999999963,"rot1":25,"rot2":-5,"rot3":-25,"rot4":-15,"rot5":5,"rot6":15,"dil1":1.025,"dil2":0.875,"dil3":0.925,"dil4":1.075,"dil5":0.975,"dil6":1.125,"rots":[25,-5,-25,-15,5,15],"dils":[1.025,0.875,0.925,1.075,0.975,1.125],"loop_number":1,"everTouched":null},{"id":"train-images","shape":"3","outlier_type":"NA","choice":5,"outlierPosition":5,"success":true,"majorityOfMostRegularShapes":"NA","rt":3811.999999999898,"rot1":15,"rot2":5,"rot3":-15,"rot4":-25,"rot5":-5,"rot6":25,"dil1":0.925,"dil2":0.875,"dil3":1.075,"dil4":0.975,"dil5":1.125,"dil6":1.025,"rots":[15,5,-15,-25,-5,25],"dils":[0.925,0.875,1.075,0.975,1.125,1.025],"loop_number":1,"everTouched":null},{"id":"train-images","shape":"1","outlier_type":"NA","choice":2,"outlierPosition":2,"success":true,"majorityOfMostRegularShapes":"NA","rt":4464.899999999034,"rot1":5,"rot2":-15,"rot3":-25,"rot4":-5,"rot5":15,"rot6":25,"dil1":1.025,"dil2":1.075,"dil3":0.875,"dil4":0.975,"dil5":0.925,"dil6":1.125,"rots":[5,-15,-25,-5,15,25],"dils":[1.025,1.075,0.875,0.975,0.925,1.125],"loop_number":1,"everTouched":null},{"id":"train-images","shape":"7","outlier_type":"NA","choice":3,"outlierPosition":3,"success":true,"majorityOfMostRegularShapes":"NA","rt":1533.1999999998516,"rot1":25,"rot2":-25,"rot3":5,"rot4":15,"rot5":-15,"rot6":-5,"dil1":0.925,"dil2":0.975,"dil3":0.875,"dil4":1.125,"dil5":1.075,"dil6":1.025,"rots":[25,-25,5,15,-15,-5],"dils":[0.925,0.975,0.875,1.125,1.075,1.025],"loop_number":1,"everTouched":null},{"id":"train-images","shape":"10","outlier_type":"NA","choice":3,"outlierPosition":3,"success":true,"majorityOfMostRegularShapes":"NA","rt":1501.0000000002037,"rot1":-5,"rot2":-25,"rot3":5,"rot4":-15,"rot5":15,"rot6":25,"dil1":0.875,"dil2":1.075,"dil3":1.125,"dil4":0.925,"dil5":0.975,"dil6":1.025,"rots":[-5,-25,5,-15,15,25],"dils":[0.875,1.075,1.125,0.925,0.975,1.025],"loop_number":1,"everTouched":null},{"id":"train-images","shape":"5","outlier_type":"NA","choice":2,"outlierPosition":2,"success":true,"majorityOfMostRegularShapes":"NA","rt":3548.1999999992695,"rot1":15,"rot2":5,"rot3":-25,"rot4":25,"rot5":-15,"rot6":-5,"dil1":1.125,"dil2":0.975,"dil3":1.075,"dil4":0.925,"dil5":0.875,"dil6":1.025,"rots":[15,5,-25,25,-15,-5],"dils":[1.125,0.975,1.075,0.925,0.875,1.025],"loop_number":1,"everTouched":null},{"id":"train-images","shape":"4","outlier_type":"NA","choice":5,"outlierPosition":5,"success":true,"majorityOfMostRegularShapes":"NA","rt":4147.899999999936,"rot1":15,"rot2":-25,"rot3":25,"rot4":5,"rot5":-5,"rot6":-15,"dil1":0.975,"dil2":0.875,"dil3":0.925,"dil4":1.125,"dil5":1.025,"dil6":1.075,"rots":[15,-25,25,5,-5,-15],"dils":[0.975,0.875,0.925,1.125,1.025,1.075],"loop_number":1,"everTouched":null}],"trial_type":"oddball-grid-image","trial_index":1,"time_elapsed":97761,"internal_node_id":"0.0-1.0","ID":"dmcfba923s"},{"results":[{"id":"train","shape":null,"outlier_type":null,"choice":2,"outlierPosition":2,"success":true,"majorityOfMostRegularShapes":null,"rt":2837.4000000003434,"rot1":25,"rot2":-15,"rot3":5,"rot4":15,"rot5":-5,"rot6":-25,"dil1":1.025,"dil2":0.875,"dil3":1.075,"dil4":0.925,"dil5":0.975,"dil6":1.125,"rots":[25,-15,5,15,-5,-25],"dils":[1.025,0.875,1.075,0.925,0.975,1.125],"loop_number":1,"everTouched":null},{"id":"train","shape":null,"outlier_type":null,"choice":5,"outlierPosition":5,"success":true,"majorityOfMostRegularShapes":null,"rt":3709.1999999993277,"rot1":-25,"rot2":-5,"rot3":15,"rot4":5,"rot5":25,"rot6":-15,"dil1":1.075,"dil2":1.025,"dil3":0.975,"dil4":1.125,"dil5":0.925,"dil6":0.875,"rots":[-25,-5,15,5,25,-15],"dils":[1.075,1.025,0.975,1.125,0.925,0.875],"loop_number":1,"everTouched":null},{"id":"train","shape":null,"outlier_type":null,"choice":0,"outlierPosition":0,"success":true,"majorityOfMostRegularShapes":null,"rt":1712.4999999996362,"rot1":25,"rot2":-25,"rot3":5,"rot4":-5,"rot5":-15,"rot6":15,"dil1":1.125,"dil2":0.925,"dil3":1.075,"dil4":0.975,"dil5":0.875,"dil6":1.025,"rots":[25,-25,5,-5,-15,15],"dils":[1.125,0.925,1.075,0.975,0.875,1.025],"loop_number":1,"everTouched":null},{"id":"train","shape":null,"outlier_type":null,"choice":1,"outlierPosition":1,"success":true,"majorityOfMostRegularShapes":null,"rt":3267.700000000332,"rot1":15,"rot2":-15,"rot3":25,"rot4":-25,"rot5":5,"rot6":-5,"dil1":1.025,"dil2":0.875,"dil3":0.975,"dil4":1.075,"dil5":1.125,"dil6":0.925,"rots":[15,-15,25,-25,5,-5],"dils":[1.025,0.875,0.975,1.075,1.125,0.925],"loop_number":1,"everTouched":null},{"id":"train","shape":null,"outlier_type":null,"choice":0,"outlierPosition":0,"success":true,"majorityOfMostRegularShapes":null,"rt":9723.600000001185,"rot1":25,"rot2":5,"rot3":-25,"rot4":-15,"rot5":-5,"rot6":15,"dil1":1.025,"dil2":0.975,"dil3":1.125,"dil4":1.075,"dil5":0.925,"dil6":0.875,"rots":[25,5,-25,-15,-5,15],"dils":[1.025,0.975,1.125,1.075,0.925,0.875],"loop_number":1,"everTouched":null},{"id":"train","shape":null,"outlier_type":null,"choice":3,"outlierPosition":3,"success":true,"majorityOfMostRegularShapes":null,"rt":2820.5999999991036,"rot1":15,"rot2":-25,"rot3":-5,"rot4":-15,"rot5":25,"rot6":5,"dil1":0.975,"dil2":0.875,"dil3":0.925,"dil4":1.025,"dil5":1.125,"dil6":1.075,"rots":[15,-25,-5,-15,25,5],"dils":[0.975,0.875,0.925,1.025,1.125,1.075],"loop_number":1,"everTouched":null}],"desiredDistance":0.3,"trial_type":"oddball-grid-easy","trial_index":2,"time_elapsed":146117,"internal_node_id":"0.0-2.0","ID":"dmcfba923s"},{"results":[{"id":"test","shape":"rustedHinge","outlier_type":2,"choice":0,"outlierPosition":0,"success":true,"majorityOfMostRegularShapes":true,"rt":15804.099999999366,"rot1":15,"rot2":25,"rot3":-5,"rot4":5,"rot5":-25,"rot6":-15,"dil1":0.925,"dil2":1.075,"dil3":0.875,"dil4":1.025,"dil5":0.975,"dil6":1.125,"rots":[15,25,-5,5,-25,-15],"dils":[0.925,1.075,0.875,1.025,0.975,1.125],"loop_number":"NA","everTouched":null},{"id":"test","shape":"rightKite","outlier_type":1,"choice":4,"outlierPosition":4,"success":true,"majorityOfMostRegularShapes":true,"rt":5624.499999999913,"rot1":-5,"rot2":5,"rot3":25,"rot4":-25,"rot5":15,"rot6":-15,"dil1":0.925,"dil2":0.875,"dil3":0.975,"dil4":1.075,"dil5":1.125,"dil6":1.025,"rots":[-5,5,25,-25,15,-15],"dils":[0.925,0.875,0.975,1.075,1.125,1.025],"loop_number":"NA","everTouched":null},{"id":"test","shape":"square","outlier_type":0,"choice":2,"outlierPosition":2,"success":true,"majorityOfMostRegularShapes":true,"rt":2339.40000000078,"rot1":5,"rot2":-25,"rot3":15,"rot4":25,"rot5":-5,"rot6":-15,"dil1":1.075,"dil2":0.875,"dil3":1.125,"dil4":0.975,"dil5":1.025,"dil6":0.925,"rots":[5,-25,15,25,-5,-15],"dils":[1.075,0.875,1.125,0.975,1.025,0.925],"loop_number":"NA","everTouched":null},{"id":"test","shape":"trapezoid","outlier_type":1,"choice":1,"outlierPosition":2,"success":false,"majorityOfMostRegularShapes":true,"rt":10041.100000000355,"rot1":-15,"rot2":-25,"rot3":15,"rot4":5,"rot5":25,"rot6":-5,"dil1":0.875,"dil2":0.975,"dil3":1.075,"dil4":0.925,"dil5":1.025,"dil6":1.125,"rots":[-15,-25,15,5,25,-5],"dils":[0.875,0.975,1.075,0.925,1.025,1.125],"loop_number":"NA","everTouched":null},{"id":"test","shape":"rectangle","outlier_type":3,"choice":3,"outlierPosition":3,"success":true,"majorityOfMostRegularShapes":true,"rt":2807.7999999986496,"rot1":-15,"rot2":-25,"rot3":5,"rot4":25,"rot5":-5,"rot6":15,"dil1":0.875,"dil2":1.125,"dil3":0.925,"dil4":0.975,"dil5":1.025,"dil6":1.075,"rots":[-15,-25,5,25,-5,15],"dils":[0.875,1.125,0.925,0.975,1.025,1.075],"loop_number":"NA","everTouched":null},{"id":"test","shape":"rustedHinge","outlier_type":1,"choice":0,"outlierPosition":0,"success":true,"majorityOfMostRegularShapes":true,"rt":4380.999999999389,"rot1":-25,"rot2":-5,"rot3":25,"rot4":5,"rot5":15,"rot6":-15,"dil1":0.925,"dil2":0.875,"dil3":0.975,"dil4":1.125,"dil5":1.025,"dil6":1.075,"rots":[-25,-5,25,5,15,-15],"dils":[0.925,0.875,0.975,1.125,1.025,1.075],"loop_number":"NA","everTouched":null},{"id":"test","shape":"square","outlier_type":3,"choice":5,"outlierPosition":5,"success":true,"majorityOfMostRegularShapes":true,"rt":2476.699999999255,"rot1":5,"rot2":-25,"rot3":-15,"rot4":25,"rot5":-5,"rot6":15,"dil1":0.975,"dil2":1.025,"dil3":1.075,"dil4":0.875,"dil5":0.925,"dil6":1.125,"rots":[5,-25,-15,25,-5,15],"dils":[0.975,1.025,1.075,0.875,0.925,1.125],"loop_number":"NA","everTouched":null},{"id":"test","shape":"isoTrapezoid","outlier_type":0,"choice":0,"outlierPosition":0,"success":true,"majorityOfMostRegularShapes":true,"rt":11561.20000000007,"rot1":25,"rot2":5,"rot3":-25,"rot4":15,"rot5":-15,"rot6":-5,"dil1":1.025,"dil2":1.075,"dil3":1.125,"dil4":0.975,"dil5":0.925,"dil6":0.875,"rots":[25,5,-25,15,-15,-5],"dils":[1.025,1.075,1.125,0.975,0.925,0.875],"loop_number":"NA","everTouched":null},{"id":"test","shape":"square","outlier_type":2,"choice":0,"outlierPosition":0,"success":true,"majorityOfMostRegularShapes":true,"rt":4409.699999998324,"rot1":-25,"rot2":15,"rot3":-5,"rot4":-15,"rot5":25,"rot6":5,"dil1":0.975,"dil2":1.025,"dil3":0.875,"dil4":0.925,"dil5":1.125,"dil6":1.075,"rots":[-25,15,-5,-15,25,5],"dils":[0.975,1.025,0.875,0.925,1.125,1.075],"loop_number":"NA","everTouched":null},{"id":"test","shape":"parallelogram","outlier_type":0,"choice":2,"outlierPosition":1,"success":false,"majorityOfMostRegularShapes":true,"rt":9648.90000000014,"rot1":-15,"rot2":5,"rot3":-25,"rot4":25,"rot5":15,"rot6":-5,"dil1":0.875,"dil2":1.075,"dil3":1.125,"dil4":0.925,"dil5":0.975,"dil6":1.025,"rots":[-15,5,-25,25,15,-5],"dils":[0.875,1.075,1.125,0.925,0.975,1.025],"loop_number":"NA","everTouched":null},{"id":"test","shape":"hinge","outlier_type":3,"choice":2,"outlierPosition":2,"success":true,"majorityOfMostRegularShapes":true,"rt":8371.900000000081,"rot1":-15,"rot2":25,"rot3":5,"rot4":15,"rot5":-25,"rot6":-5,"dil1":0.875,"dil2":0.925,"dil3":0.975,"dil4":1.075,"dil5":1.125,"dil6":1.025,"rots":[-15,25,5,15,-25,-5],"dils":[0.875,0.925,0.975,1.075,1.125,1.025],"loop_number":"NA","everTouched":null},{"id":"test","shape":"random","outlier_type":1,"choice":3,"outlierPosition":2,"success":false,"majorityOfMostRegularShapes":true,"rt":2797.300000000192,"rot1":-25,"rot2":15,"rot3":-15,"rot4":25,"rot5":-5,"rot6":5,"dil1":0.925,"dil2":1.125,"dil3":1.025,"dil4":0.875,"dil5":1.075,"dil6":0.975,"rots":[-25,15,-15,25,-5,5],"dils":[0.925,1.125,1.025,0.875,1.075,0.975],"loop_number":"NA","everTouched":null},{"id":"test","shape":"parallelogram","outlier_type":3,"choice":5,"outlierPosition":5,"success":true,"majorityOfMostRegularShapes":true,"rt":5233.500000000233,"rot1":-15,"rot2":5,"rot3":-25,"rot4":25,"rot5":-5,"rot6":15,"dil1":1.075,"dil2":0.875,"dil3":0.975,"dil4":1.125,"dil5":0.925,"dil6":1.025,"rots":[-15,5,-25,25,-5,15],"dils":[1.075,0.875,0.975,1.125,0.925,1.025],"loop_number":"NA","everTouched":null},{"id":"test","shape":"rustedHinge","outlier_type":0,"choice":4,"outlierPosition":4,"success":true,"majorityOfMostRegularShapes":true,"rt":3307.8999999997905,"rot1":-25,"rot2":5,"rot3":-5,"rot4":-15,"rot5":15,"rot6":25,"dil1":1.025,"dil2":1.075,"dil3":0.875,"dil4":0.975,"dil5":0.925,"dil6":1.125,"rots":[-25,5,-5,-15,15,25],"dils":[1.025,1.075,0.875,0.975,0.925,1.125],"loop_number":"NA","everTouched":null},{"id":"test","shape":"kite","outlier_type":1,"choice":5,"outlierPosition":2,"success":false,"majorityOfMostRegularShapes":true,"rt":8918.20000000007,"rot1":15,"rot2":-5,"rot3":5,"rot4":25,"rot5":-15,"rot6":-25,"dil1":0.875,"dil2":0.925,"dil3":1.025,"dil4":1.075,"dil5":1.125,"dil6":0.975,"rots":[15,-5,5,25,-15,-25],"dils":[0.875,0.925,1.025,1.075,1.125,0.975],"loop_number":"NA","everTouched":null},{"id":"test","shape":"rightKite","outlier_type":2,"choice":2,"outlierPosition":5,"success":false,"majorityOfMostRegularShapes":true,"rt":8256.30000000092,"rot1":-15,"rot2":-25,"rot3":5,"rot4":-5,"rot5":15,"rot6":25,"dil1":1.075,"dil2":1.025,"dil3":0.875,"dil4":0.925,"dil5":0.975,"dil6":1.125,"rots":[-15,-25,5,-5,15,25],"dils":[1.075,1.025,0.875,0.925,0.975,1.125],"loop_number":"NA","everTouched":null},{"id":"test","shape":"random","outlier_type":0,"choice":2,"outlierPosition":2,"success":true,"majorityOfMostRegularShapes":true,"rt":1830.3000000014435,"rot1":-25,"rot2":-15,"rot3":5,"rot4":15,"rot5":-5,"rot6":25,"dil1":1.025,"dil2":1.075,"dil3":0.875,"dil4":0.975,"dil5":0.925,"dil6":1.125,"rots":[-25,-15,5,15,-5,25],"dils":[1.025,1.075,0.875,0.975,0.925,1.125],"loop_number":"NA","everTouched":null},{"id":"test","shape":"trapezoid","outlier_type":3,"choice":1,"outlierPosition":2,"success":false,"majorityOfMostRegularShapes":true,"rt":14161.900000000955,"rot1":25,"rot2":-25,"rot3":15,"rot4":5,"rot5":-5,"rot6":-15,"dil1":0.875,"dil2":0.975,"dil3":1.075,"dil4":0.925,"dil5":1.125,"dil6":1.025,"rots":[25,-25,15,5,-5,-15],"dils":[0.875,0.975,1.075,0.925,1.125,1.025],"loop_number":"NA","everTouched":null},{"id":"test","shape":"parallelogram","outlier_type":2,"choice":1,"outlierPosition":1,"success":true,"majorityOfMostRegularShapes":true,"rt":4177.900000000605,"rot1":-25,"rot2":15,"rot3":-5,"rot4":-15,"rot5":5,"rot6":25,"dil1":1.125,"dil2":0.975,"dil3":1.075,"dil4":1.025,"dil5":0.925,"dil6":0.875,"rots":[-25,15,-5,-15,5,25],"dils":[1.125,0.975,1.075,1.025,0.925,0.875],"loop_number":"NA","everTouched":null},{"id":"test","shape":"rightKite","outlier_type":0,"choice":2,"outlierPosition":5,"success":false,"majorityOfMostRegularShapes":true,"rt":7006.800000001036,"rot1":25,"rot2":-15,"rot3":15,"rot4":-25,"rot5":5,"rot6":-5,"dil1":1.025,"dil2":1.125,"dil3":0.975,"dil4":0.925,"dil5":1.075,"dil6":0.875,"rots":[25,-15,15,-25,5,-5],"dils":[1.025,1.125,0.975,0.925,1.075,0.875],"loop_number":"NA","everTouched":null},{"id":"test","shape":"losange","outlier_type":3,"choice":5,"outlierPosition":5,"success":true,"majorityOfMostRegularShapes":true,"rt":4112.400000000023,"rot1":15,"rot2":25,"rot3":-15,"rot4":5,"rot5":-5,"rot6":-25,"dil1":0.875,"dil2":1.025,"dil3":0.975,"dil4":1.075,"dil5":1.125,"dil6":0.925,"rots":[15,25,-15,5,-5,-25],"dils":[0.875,1.025,0.975,1.075,1.125,0.925],"loop_number":"NA","everTouched":null},{"id":"test","shape":"losange","outlier_type":2,"choice":4,"outlierPosition":4,"success":true,"majorityOfMostRegularShapes":true,"rt":6514.400000000023,"rot1":-5,"rot2":-25,"rot3":25,"rot4":-15,"rot5":5,"rot6":15,"dil1":1.075,"dil2":0.975,"dil3":1.025,"dil4":0.875,"dil5":1.125,"dil6":0.925,"rots":[-5,-25,25,-15,5,15],"dils":[1.075,0.975,1.025,0.875,1.125,0.925],"loop_number":"NA","everTouched":null},{"id":"test","shape":"rustedHinge","outlier_type":3,"choice":5,"outlierPosition":5,"success":true,"majorityOfMostRegularShapes":true,"rt":6924.999999999243,"rot1":5,"rot2":25,"rot3":15,"rot4":-15,"rot5":-5,"rot6":-25,"dil1":1.125,"dil2":1.075,"dil3":1.025,"dil4":0.975,"dil5":0.925,"dil6":0.875,"rots":[5,25,15,-15,-5,-25],"dils":[1.125,1.075,1.025,0.975,0.925,0.875],"loop_number":"NA","everTouched":null},{"id":"test","shape":"random","outlier_type":2,"choice":2,"outlierPosition":3,"success":false,"majorityOfMostRegularShapes":true,"rt":10182.099999999977,"rot1":-25,"rot2":25,"rot3":15,"rot4":-15,"rot5":5,"rot6":-5,"dil1":1.075,"dil2":1.125,"dil3":0.925,"dil4":1.025,"dil5":0.975,"dil6":0.875,"rots":[-25,25,15,-15,5,-5],"dils":[1.075,1.125,0.925,1.025,0.975,0.875],"loop_number":"NA","everTouched":null},{"id":"test","shape":"losange","outlier_type":1,"choice":2,"outlierPosition":2,"success":true,"majorityOfMostRegularShapes":true,"rt":6220.799999999173,"rot1":25,"rot2":-5,"rot3":-15,"rot4":5,"rot5":-25,"rot6":15,"dil1":0.925,"dil2":0.975,"dil3":1.025,"dil4":1.125,"dil5":1.075,"dil6":0.875,"rots":[25,-5,-15,5,-25,15],"dils":[0.925,0.975,1.025,1.125,1.075,0.875],"loop_number":"NA","everTouched":null},{"id":"test","shape":"hinge","outlier_type":0,"choice":2,"outlierPosition":2,"success":true,"majorityOfMostRegularShapes":true,"rt":4561.000000001513,"rot1":25,"rot2":-5,"rot3":5,"rot4":-25,"rot5":-15,"rot6":15,"dil1":1.025,"dil2":0.875,"dil3":1.075,"dil4":0.925,"dil5":0.975,"dil6":1.125,"rots":[25,-5,5,-25,-15,15],"dils":[1.025,0.875,1.075,0.925,0.975,1.125],"loop_number":"NA","everTouched":null},{"id":"test","shape":"parallelogram","outlier_type":1,"choice":0,"outlierPosition":1,"success":false,"majorityOfMostRegularShapes":true,"rt":7951.499999999243,"rot1":25,"rot2":5,"rot3":15,"rot4":-25,"rot5":-5,"rot6":-15,"dil1":0.975,"dil2":1.075,"dil3":1.025,"dil4":1.125,"dil5":0.925,"dil6":0.875,"rots":[25,5,15,-25,-5,-15],"dils":[0.975,1.075,1.025,1.125,0.925,0.875],"loop_number":"NA","everTouched":null},{"id":"test","shape":"isoTrapezoid","outlier_type":2,"choice":3,"outlierPosition":3,"success":true,"majorityOfMostRegularShapes":true,"rt":4644.5999999996275,"rot1":5,"rot2":15,"rot3":25,"rot4":-25,"rot5":-5,"rot6":-15,"dil1":0.875,"dil2":0.925,"dil3":1.025,"dil4":0.975,"dil5":1.075,"dil6":1.125,"rots":[5,15,25,-25,-5,-15],"dils":[0.875,0.925,1.025,0.975,1.075,1.125],"loop_number":"NA","everTouched":null},{"id":"test","shape":"rightKite","outlier_type":3,"choice":5,"outlierPosition":5,"success":true,"majorityOfMostRegularShapes":true,"rt":6742.799999999988,"rot1":-25,"rot2":-5,"rot3":25,"rot4":-15,"rot5":5,"rot6":15,"dil1":1.075,"dil2":1.025,"dil3":0.875,"dil4":0.975,"dil5":0.925,"dil6":1.125,"rots":[-25,-5,25,-15,5,15],"dils":[1.075,1.025,0.875,0.975,0.925,1.125],"loop_number":"NA","everTouched":null},{"id":"test","shape":"hinge","outlier_type":1,"choice":3,"outlierPosition":3,"success":true,"majorityOfMostRegularShapes":true,"rt":12636.599999999802,"rot1":25,"rot2":15,"rot3":-25,"rot4":-15,"rot5":-5,"rot6":5,"dil1":1.125,"dil2":0.875,"dil3":0.925,"dil4":1.075,"dil5":0.975,"dil6":1.025,"rots":[25,15,-25,-15,-5,5],"dils":[1.125,0.875,0.925,1.075,0.975,1.025],"loop_number":"NA","everTouched":null},{"id":"test","shape":"rectangle","outlier_type":2,"choice":2,"outlierPosition":2,"success":true,"majorityOfMostRegularShapes":true,"rt":3918.099999998987,"rot1":25,"rot2":-25,"rot3":-15,"rot4":15,"rot5":5,"rot6":-5,"dil1":1.075,"dil2":0.925,"dil3":1.025,"dil4":0.875,"dil5":1.125,"dil6":0.975,"rots":[25,-25,-15,15,5,-5],"dils":[1.075,0.925,1.025,0.875,1.125,0.975],"loop_number":"NA","everTouched":null},{"id":"test","shape":"random","outlier_type":3,"choice":2,"outlierPosition":2,"success":true,"majorityOfMostRegularShapes":true,"rt":6536.400000000838,"rot1":15,"rot2":-15,"rot3":25,"rot4":-5,"rot5":-25,"rot6":5,"dil1":1.125,"dil2":0.875,"dil3":0.925,"dil4":1.075,"dil5":0.975,"dil6":1.025,"rots":[15,-15,25,-5,-25,5],"dils":[1.125,0.875,0.925,1.075,0.975,1.025],"loop_number":"NA","everTouched":null},{"id":"test","shape":"hinge","outlier_type":2,"choice":5,"outlierPosition":0,"success":false,"majorityOfMostRegularShapes":true,"rt":8198.299999999988,"rot1":-15,"rot2":-5,"rot3":5,"rot4":25,"rot5":15,"rot6":-25,"dil1":0.875,"dil2":1.025,"dil3":1.125,"dil4":0.975,"dil5":1.075,"dil6":0.925,"rots":[-15,-5,5,25,15,-25],"dils":[0.875,1.025,1.125,0.975,1.075,0.925],"loop_number":"NA","everTouched":null},{"id":"test","shape":"kite","outlier_type":3,"choice":0,"outlierPosition":0,"success":true,"majorityOfMostRegularShapes":true,"rt":6354.900000000256,"rot1":15,"rot2":-25,"rot3":5,"rot4":25,"rot5":-15,"rot6":-5,"dil1":0.975,"dil2":0.875,"dil3":1.075,"dil4":1.125,"dil5":1.025,"dil6":0.925,"rots":[15,-25,5,25,-15,-5],"dils":[0.975,0.875,1.075,1.125,1.025,0.925],"loop_number":"NA","everTouched":null},{"id":"test","shape":"rectangle","outlier_type":0,"choice":2,"outlierPosition":2,"success":true,"majorityOfMostRegularShapes":true,"rt":5277.599999999453,"rot1":25,"rot2":-15,"rot3":5,"rot4":-25,"rot5":-5,"rot6":15,"dil1":0.975,"dil2":1.125,"dil3":0.875,"dil4":1.025,"dil5":1.075,"dil6":0.925,"rots":[25,-15,5,-25,-5,15],"dils":[0.975,1.125,0.875,1.025,1.075,0.925],"loop_number":"NA","everTouched":null},{"id":"test","shape":"isoTrapezoid","outlier_type":1,"choice":0,"outlierPosition":0,"success":true,"majorityOfMostRegularShapes":true,"rt":5720.800000000978,"rot1":5,"rot2":-25,"rot3":15,"rot4":-5,"rot5":-15,"rot6":25,"dil1":1.025,"dil2":0.925,"dil3":0.875,"dil4":1.075,"dil5":0.975,"dil6":1.125,"rots":[5,-25,15,-5,-15,25],"dils":[1.025,0.925,0.875,1.075,0.975,1.125],"loop_number":"NA","everTouched":null},{"id":"test","shape":"trapezoid","outlier_type":0,"choice":0,"outlierPosition":5,"success":false,"majorityOfMostRegularShapes":true,"rt":21545.299999999697,"rot1":-25,"rot2":25,"rot3":15,"rot4":-15,"rot5":5,"rot6":-5,"dil1":1.025,"dil2":0.925,"dil3":0.975,"dil4":0.875,"dil5":1.125,"dil6":1.075,"rots":[-25,25,15,-15,5,-5],"dils":[1.025,0.925,0.975,0.875,1.125,1.075],"loop_number":"NA","everTouched":null},{"id":"test","shape":"rectangle","outlier_type":1,"choice":1,"outlierPosition":1,"success":true,"majorityOfMostRegularShapes":true,"rt":2949.0999999998603,"rot1":-5,"rot2":5,"rot3":25,"rot4":-15,"rot5":15,"rot6":-25,"dil1":0.925,"dil2":0.875,"dil3":1.125,"dil4":1.025,"dil5":1.075,"dil6":0.975,"rots":[-5,5,25,-15,15,-25],"dils":[0.925,0.875,1.125,1.025,1.075,0.975],"loop_number":"NA","everTouched":null},{"id":"test","shape":"trapezoid","outlier_type":2,"choice":4,"outlierPosition":1,"success":false,"majorityOfMostRegularShapes":true,"rt":5699.999999998952,"rot1":5,"rot2":25,"rot3":-5,"rot4":-15,"rot5":-25,"rot6":15,"dil1":0.975,"dil2":0.925,"dil3":1.125,"dil4":1.075,"dil5":1.025,"dil6":0.875,"rots":[5,25,-5,-15,-25,15],"dils":[0.975,0.925,1.125,1.075,1.025,0.875],"loop_number":"NA","everTouched":null},{"id":"test","shape":"losange","outlier_type":0,"choice":4,"outlierPosition":2,"success":false,"majorityOfMostRegularShapes":true,"rt":7199.399999999558,"rot1":-5,"rot2":15,"rot3":25,"rot4":-25,"rot5":-15,"rot6":5,"dil1":1.125,"dil2":0.875,"dil3":0.925,"dil4":0.975,"dil5":1.025,"dil6":1.075,"rots":[-5,15,25,-25,-15,5],"dils":[1.125,0.875,0.925,0.975,1.025,1.075],"loop_number":"NA","everTouched":null},{"id":"test","shape":"square","outlier_type":1,"choice":5,"outlierPosition":5,"success":true,"majorityOfMostRegularShapes":true,"rt":4573.400000001187,"rot1":-15,"rot2":-5,"rot3":25,"rot4":15,"rot5":5,"rot6":-25,"dil1":1.025,"dil2":1.125,"dil3":1.075,"dil4":0.925,"dil5":0.975,"dil6":0.875,"rots":[-15,-5,25,15,5,-25],"dils":[1.025,1.125,1.075,0.925,0.975,0.875],"loop_number":"NA","everTouched":null},{"id":"test","shape":"isoTrapezoid","outlier_type":3,"choice":3,"outlierPosition":0,"success":false,"majorityOfMostRegularShapes":true,"rt":5676.100000000559,"rot1":-5,"rot2":15,"rot3":-15,"rot4":-25,"rot5":25,"rot6":5,"dil1":1.075,"dil2":1.125,"dil3":1.025,"dil4":0.875,"dil5":0.975,"dil6":0.925,"rots":[-5,15,-15,-25,25,5],"dils":[1.075,1.125,1.025,0.875,0.975,0.925],"loop_number":"NA","everTouched":null},{"id":"test","shape":"kite","outlier_type":0,"choice":4,"outlierPosition":4,"success":true,"majorityOfMostRegularShapes":true,"rt":5245.9999999993015,"rot1":25,"rot2":15,"rot3":-15,"rot4":-5,"rot5":-25,"rot6":5,"dil1":1.075,"dil2":0.925,"dil3":0.975,"dil4":1.025,"dil5":0.875,"dil6":1.125,"rots":[25,15,-15,-5,-25,5],"dils":[1.075,0.925,0.975,1.025,0.875,1.125],"loop_number":"NA","everTouched":null},{"id":"test","shape":"kite","outlier_type":2,"choice":2,"outlierPosition":1,"success":false,"majorityOfMostRegularShapes":true,"rt":7305.899999999441,"rot1":-25,"rot2":15,"rot3":25,"rot4":-5,"rot5":-15,"rot6":5,"dil1":0.975,"dil2":0.875,"dil3":1.075,"dil4":0.925,"dil5":1.125,"dil6":1.025,"rots":[-25,15,25,-5,-15,5],"dils":[0.975,0.875,1.075,0.925,1.125,1.025],"loop_number":"NA","everTouched":null}],"desiredDistance":0.3,"trial_type":"oddball-grid","trial_index":3,"time_elapsed":598489,"internal_node_id":"0.0-3.0","ID":"dmcfba923s"},{"success":true,"trial_type":"fullscreen","trial_index":4,"time_elapsed":601687,"internal_node_id":"0.0-4.0","ID":"dmcfba923s"}]