[{"success":true,"trial_type":"fullscreen","trial_index":0,"time_elapsed":16857,"internal_node_id":"0.0-0.0","ID":"6tavb9lkp3"},{"results":[{"id":"train-images","shape":"5","outlier_type":"NA","choice":4,"outlierPosition":4,"success":true,"majorityOfMostRegularShapes":"NA","rt":8458.000000002357,"rot1":-5,"rot2":25,"rot3":15,"rot4":5,"rot5":-25,"rot6":-15,"dil1":1.025,"dil2":1.075,"dil3":0.875,"dil4":0.925,"dil5":1.125,"dil6":0.975,"rots":[-5,25,15,5,-25,-15],"dils":[1.025,1.075,0.875,0.925,1.125,0.975],"loop_number":1,"everTouched":null},{"id":"train-images","shape":"4","outlier_type":"NA","choice":4,"outlierPosition":4,"success":true,"majorityOfMostRegularShapes":"NA","rt":8155.900000001566,"rot1":15,"rot2":-15,"rot3":-25,"rot4":5,"rot5":-5,"rot6":25,"dil1":0.875,"dil2":1.025,"dil3":1.075,"dil4":0.975,"dil5":1.125,"dil6":0.925,"rots":[15,-15,-25,5,-5,25],"dils":[0.875,1.025,1.075,0.975,1.125,0.925],"loop_number":1,"everTouched":null},{"id":"train-images","shape":"3","outlier_type":"NA","choice":5,"outlierPosition":5,"success":true,"majorityOfMostRegularShapes":"NA","rt":2517.8999999989173,"rot1":5,"rot2":-25,"rot3":-15,"rot4":-5,"rot5":15,"rot6":25,"dil1":1.125,"dil2":0.875,"dil3":0.975,"dil4":0.925,"dil5":1.075,"dil6":1.025,"rots":[5,-25,-15,-5,15,25],"dils":[1.125,0.875,0.975,0.925,1.075,1.025],"loop_number":1,"everTouched":null},{"id":"train-images","shape":"1","outlier_type":"NA","choice":4,"outlierPosition":4,"success":true,"majorityOfMostRegularShapes":"NA","rt":1480.7000000000698,"rot1":-5,"rot2":5,"rot3":25,"rot4":-15,"rot5":-25,"rot6":15,"dil1":0.975,"dil2":0.925,"dil3":0.875,"dil4":1.025,"dil5":1.125,"dil6":1.075,"rots":[-5,5,25,-15,-25,15],"dils":[0.975,0.925,0.875,1.025,1.125,1.075],"loop_number":1,"everTouched":null},{"id":"train-images","shape":"9","outlier_type":"NA","choice":1,"outlierPosition":1,"success":true,"majorityOfMostRegularShapes":"NA","rt":1908.49999999773,"rot1":-25,"rot2":5,"rot3":-5,"rot4":-15,"rot5":15,"rot6":25,"dil1":1.025,"dil2":1.125,"dil3":1.075,"dil4":0.875,"dil5":0.975,"dil6":0.925,"rots":[-25,5,-5,-15,15,25],"dils":[1.025,1.125,1.075,0.875,0.975,0.925],"loop_number":1,"everTouched":null},{"id":"train-images","shape":"8","outlier_type":"NA","choice":0,"outlierPosition":0,"success":true,"majorityOfMostRegularShapes":"NA","rt":1803.6000000029162,"rot1":-15,"rot2":-25,"rot3":5,"rot4":-5,"rot5":25,"rot6":15,"dil1":1.125,"dil2":0.925,"dil3":1.025,"dil4":0.975,"dil5":0.875,"dil6":1.075,"rots":[-15,-25,5,-5,25,15],"dils":[1.125,0.925,1.025,0.975,0.875,1.075],"loop_number":1,"everTouched":null},{"id":"train-images","shape":"7","outlier_type":"NA","choice":0,"outlierPosition":0,"success":true,"majorityOfMostRegularShapes":"NA","rt":1542.9000000003725,"rot1":15,"rot2":-15,"rot3":-25,"rot4":-5,"rot5":25,"rot6":5,"dil1":1.075,"dil2":1.125,"dil3":0.875,"dil4":0.925,"dil5":1.025,"dil6":0.975,"rots":[15,-15,-25,-5,25,5],"dils":[1.075,1.125,0.875,0.925,1.025,0.975],"loop_number":1,"everTouched":null},{"id":"train-images","shape":"6","outlier_type":"NA","choice":3,"outlierPosition":3,"success":true,"majorityOfMostRegularShapes":"NA","rt":1836.8999999984226,"rot1":5,"rot2":15,"rot3":-15,"rot4":-5,"rot5":25,"rot6":-25,"dil1":0.875,"dil2":0.925,"dil3":1.075,"dil4":0.975,"dil5":1.025,"dil6":1.125,"rots":[5,15,-15,-5,25,-25],"dils":[0.875,0.925,1.075,0.975,1.025,1.125],"loop_number":1,"everTouched":null},{"id":"train-images","shape":"10","outlier_type":"NA","choice":4,"outlierPosition":4,"success":true,"majorityOfMostRegularShapes":"NA","rt":1668.099999998958,"rot1":-15,"rot2":-5,"rot3":25,"rot4":15,"rot5":-25,"rot6":5,"dil1":0.975,"dil2":0.875,"dil3":1.025,"dil4":0.925,"dil5":1.075,"dil6":1.125,"rots":[-15,-5,25,15,-25,5],"dils":[0.975,0.875,1.025,0.925,1.075,1.125],"loop_number":1,"everTouched":null},{"id":"train-images","shape":"2","outlier_type":"NA","choice":2,"outlierPosition":2,"success":true,"majorityOfMostRegularShapes":"NA","rt":1949.8999999996158,"rot1":-5,"rot2":15,"rot3":-25,"rot4":-15,"rot5":25,"rot6":5,"dil1":0.975,"dil2":1.025,"dil3":0.925,"dil4":1.125,"dil5":1.075,"dil6":0.875,"rots":[-5,15,-25,-15,25,5],"dils":[0.975,1.025,0.925,1.125,1.075,0.875],"loop_number":1,"everTouched":null}],"trial_type":"oddball-grid-image","trial_index":1,"time_elapsed":73950,"internal_node_id":"0.0-1.0","ID":"6tavb9lkp3"},{"results":[{"id":"train","shape":null,"outlier_type":null,"choice":3,"outlierPosition":3,"success":true,"majorityOfMostRegularShapes":null,"rt":1161.10000000117,"rot1":-25,"rot2":-5,"rot3":25,"rot4":15,"rot5":-15,"rot6":5,"dil1":0.875,"dil2":0.975,"dil3":1.075,"dil4":1.025,"dil5":0.925,"dil6":1.125,"rots":[-25,-5,25,15,-15,5],"dils":[0.875,0.975,1.075,1.025,0.925,1.125],"loop_number":1,"everTouched":null},{"id":"train","shape":null,"outlier_type":null,"choice":3,"outlierPosition":3,"success":true,"majorityOfMostRegularShapes":null,"rt":3209.600000001956,"rot1":15,"rot2":-25,"rot3":-15,"rot4":5,"rot5":25,"rot6":-5,"dil1":0.975,"dil2":0.875,"dil3":1.025,"dil4":1.125,"dil5":0.925,"dil6":1.075,"rots":[15,-25,-15,5,25,-5],"dils":[0.975,0.875,1.025,1.125,0.925,1.075],"loop_number":1,"everTouched":null},{"id":"train","shape":null,"outlier_type":null,"choice":1,"outlierPosition":1,"success":true,"majorityOfMostRegularShapes":null,"rt":3646.7000000011467,"rot1":-25,"rot2":-5,"rot3":15,"rot4":5,"rot5":-15,"rot6":25,"dil1":0.875,"dil2":1.025,"dil3":1.075,"dil4":0.975,"dil5":1.125,"dil6":0.925,"rots":[-25,-5,15,5,-15,25],"dils":[0.875,1.025,1.075,0.975,1.125,0.925],"loop_number":1,"everTouched":null},{"id":"train","shape":null,"outlier_type":null,"choice":3,"outlierPosition":3,"success":true,"majorityOfMostRegularShapes":null,"rt":1075.0000000007276,"rot1":5,"rot2":25,"rot3":-5,"rot4":15,"rot5":-15,"rot6":-25,"dil1":1.025,"dil2":0.925,"dil3":1.125,"dil4":0.875,"dil5":0.975,"dil6":1.075,"rots":[5,25,-5,15,-15,-25],"dils":[1.025,0.925,1.125,0.875,0.975,1.075],"loop_number":1,"everTouched":null},{"id":"train","shape":null,"outlier_type":null,"choice":4,"outlierPosition":4,"success":true,"majorityOfMostRegularShapes":null,"rt":1768.7000000005355,"rot1":15,"rot2":5,"rot3":-15,"rot4":-5,"rot5":-25,"rot6":25,"dil1":1.075,"dil2":1.025,"dil3":0.875,"dil4":0.975,"dil5":0.925,"dil6":1.125,"rots":[15,5,-15,-5,-25,25],"dils":[1.075,1.025,0.875,0.975,0.925,1.125],"loop_number":1,"everTouched":null},{"id":"train","shape":null,"outlier_type":null,"choice":4,"outlierPosition":4,"success":true,"majorityOfMostRegularShapes":null,"rt":1603.1999999977415,"rot1":-25,"rot2":-5,"rot3":15,"rot4":25,"rot5":-15,"rot6":5,"dil1":1.125,"dil2":1.025,"dil3":1.075,"dil4":0.875,"dil5":0.975,"dil6":0.925,"rots":[-25,-5,15,25,-15,5],"dils":[1.125,1.025,1.075,0.875,0.975,0.925],"loop_number":1,"everTouched":null}],"desiredDistance":0.3,"trial_type":"oddball-grid-easy","trial_index":2,"time_elapsed":97350,"internal_node_id":"0.0-2.0","ID":"6tavb9lkp3"},{"results":[{"id":"test","shape":"square","outlier_type":3,"choice":5,"outlierPosition":5,"success":true,"majorityOfMostRegularShapes":true,"rt":1411.500000001979,"rot1":5,"rot2":-5,"rot3":-25,"rot4":15,"rot5":-15,"rot6":25,"dil1":0.875,"dil2":0.975,"dil3":0.925,"dil4":1.025,"dil5":1.125,"dil6":1.075,"rots":[5,-5,-25,15,-15,25],"dils":[0.875,0.975,0.925,1.025,1.125,1.075],"loop_number":"NA","everTouched":null},{"id":"test","shape":"rustedHinge","outlier_type":1,"choice":4,"outlierPosition":4,"success":true,"majorityOfMostRegularShapes":true,"rt":3661.000000000058,"rot1":5,"rot2":15,"rot3":-25,"rot4":-15,"rot5":25,"rot6":-5,"dil1":0.925,"dil2":0.975,"dil3":1.125,"dil4":1.075,"dil5":0.875,"dil6":1.025,"rots":[5,15,-25,-15,25,-5],"dils":[0.925,0.975,1.125,1.075,0.875,1.025],"loop_number":"NA","everTouched":null},{"id":"test","shape":"random","outlier_type":2,"choice":2,"outlierPosition":3,"success":false,"majorityOfMostRegularShapes":true,"rt":5710.6000000021595,"rot1":25,"rot2":5,"rot3":-25,"rot4":15,"rot5":-15,"rot6":-5,"dil1":0.875,"dil2":1.125,"dil3":0.925,"dil4":0.975,"dil5":1.025,"dil6":1.075,"rots":[25,5,-25,15,-15,-5],"dils":[0.875,1.125,0.925,0.975,1.025,1.075],"loop_number":"NA","everTouched":null},{"id":"test","shape":"rightKite","outlier_type":0,"choice":1,"outlierPosition":1,"success":true,"majorityOfMostRegularShapes":true,"rt":6409.1000000007625,"rot1":25,"rot2":5,"rot3":-5,"rot4":-25,"rot5":15,"rot6":-15,"dil1":1.025,"dil2":0.875,"dil3":0.925,"dil4":0.975,"dil5":1.075,"dil6":1.125,"rots":[25,5,-5,-25,15,-15],"dils":[1.025,0.875,0.925,0.975,1.075,1.125],"loop_number":"NA","everTouched":null},{"id":"test","shape":"isoTrapezoid","outlier_type":3,"choice":4,"outlierPosition":4,"success":true,"majorityOfMostRegularShapes":true,"rt":5697.900000002846,"rot1":-25,"rot2":-5,"rot3":25,"rot4":15,"rot5":-15,"rot6":5,"dil1":1.025,"dil2":0.925,"dil3":0.975,"dil4":1.125,"dil5":0.875,"dil6":1.075,"rots":[-25,-5,25,15,-15,5],"dils":[1.025,0.925,0.975,1.125,0.875,1.075],"loop_number":"NA","everTouched":null},{"id":"test","shape":"losange","outlier_type":0,"choice":3,"outlierPosition":3,"success":true,"majorityOfMostRegularShapes":true,"rt":6227.29999999865,"rot1":-5,"rot2":-15,"rot3":15,"rot4":5,"rot5":-25,"rot6":25,"dil1":1.025,"dil2":1.075,"dil3":1.125,"dil4":0.975,"dil5":0.875,"dil6":0.925,"rots":[-5,-15,15,5,-25,25],"dils":[1.025,1.075,1.125,0.975,0.875,0.925],"loop_number":"NA","everTouched":null},{"id":"test","shape":"parallelogram","outlier_type":3,"choice":1,"outlierPosition":0,"success":false,"majorityOfMostRegularShapes":true,"rt":1830.2999999978056,"rot1":-5,"rot2":-15,"rot3":15,"rot4":-25,"rot5":5,"rot6":25,"dil1":1.075,"dil2":0.875,"dil3":1.125,"dil4":0.925,"dil5":1.025,"dil6":0.975,"rots":[-5,-15,15,-25,5,25],"dils":[1.075,0.875,1.125,0.925,1.025,0.975],"loop_number":"NA","everTouched":null},{"id":"test","shape":"kite","outlier_type":1,"choice":2,"outlierPosition":2,"success":true,"majorityOfMostRegularShapes":true,"rt":9161.099999997532,"rot1":-5,"rot2":-25,"rot3":5,"rot4":15,"rot5":25,"rot6":-15,"dil1":0.875,"dil2":1.025,"dil3":0.975,"dil4":0.925,"dil5":1.125,"dil6":1.075,"rots":[-5,-25,5,15,25,-15],"dils":[0.875,1.025,0.975,0.925,1.125,1.075],"loop_number":"NA","everTouched":null},{"id":"test","shape":"trapezoid","outlier_type":3,"choice":0,"outlierPosition":0,"success":true,"majorityOfMostRegularShapes":true,"rt":8084.199999997509,"rot1":5,"rot2":15,"rot3":-25,"rot4":-5,"rot5":-15,"rot6":25,"dil1":0.975,"dil2":0.875,"dil3":1.025,"dil4":1.075,"dil5":1.125,"dil6":0.925,"rots":[5,15,-25,-5,-15,25],"dils":[0.975,0.875,1.025,1.075,1.125,0.925],"loop_number":"NA","everTouched":null},{"id":"test","shape":"isoTrapezoid","outlier_type":2,"choice":1,"outlierPosition":1,"success":true,"majorityOfMostRegularShapes":true,"rt":6360.8000000022,"rot1":25,"rot2":-25,"rot3":-5,"rot4":15,"rot5":5,"rot6":-15,"dil1":1.125,"dil2":0.925,"dil3":0.875,"dil4":1.075,"dil5":0.975,"dil6":1.025,"rots":[25,-25,-5,15,5,-15],"dils":[1.125,0.925,0.875,1.075,0.975,1.025],"loop_number":"NA","everTouched":null},{"id":"test","shape":"hinge","outlier_type":3,"choice":5,"outlierPosition":5,"success":true,"majorityOfMostRegularShapes":true,"rt":6294.90000000078,"rot1":-25,"rot2":5,"rot3":-5,"rot4":15,"rot5":-15,"rot6":25,"dil1":0.875,"dil2":1.025,"dil3":1.125,"dil4":1.075,"dil5":0.925,"dil6":0.975,"rots":[-25,5,-5,15,-15,25],"dils":[0.875,1.025,1.125,1.075,0.925,0.975],"loop_number":"NA","everTouched":null},{"id":"test","shape":"random","outlier_type":1,"choice":2,"outlierPosition":2,"success":true,"majorityOfMostRegularShapes":true,"rt":16625.50000000192,"rot1":-5,"rot2":-15,"rot3":5,"rot4":-25,"rot5":25,"rot6":15,"dil1":0.925,"dil2":1.125,"dil3":1.025,"dil4":1.075,"dil5":0.975,"dil6":0.875,"rots":[-5,-15,5,-25,25,15],"dils":[0.925,1.125,1.025,1.075,0.975,0.875],"loop_number":"NA","everTouched":null},{"id":"test","shape":"rustedHinge","outlier_type":2,"choice":0,"outlierPosition":0,"success":true,"majorityOfMostRegularShapes":true,"rt":3346.000000001368,"rot1":25,"rot2":-15,"rot3":15,"rot4":5,"rot5":-5,"rot6":-25,"dil1":0.925,"dil2":1.075,"dil3":0.975,"dil4":1.025,"dil5":0.875,"dil6":1.125,"rots":[25,-15,15,5,-5,-25],"dils":[0.925,1.075,0.975,1.025,0.875,1.125],"loop_number":"NA","everTouched":null},{"id":"test","shape":"losange","outlier_type":3,"choice":4,"outlierPosition":4,"success":true,"majorityOfMostRegularShapes":true,"rt":2907.999999999447,"rot1":15,"rot2":25,"rot3":5,"rot4":-5,"rot5":-15,"rot6":-25,"dil1":0.875,"dil2":1.075,"dil3":0.925,"dil4":0.975,"dil5":1.125,"dil6":1.025,"rots":[15,25,5,-5,-15,-25],"dils":[0.875,1.075,0.925,0.975,1.125,1.025],"loop_number":"NA","everTouched":null},{"id":"test","shape":"hinge","outlier_type":1,"choice":5,"outlierPosition":5,"success":true,"majorityOfMostRegularShapes":true,"rt":2014.4000000000233,"rot1":5,"rot2":-15,"rot3":-25,"rot4":25,"rot5":-5,"rot6":15,"dil1":1.125,"dil2":0.975,"dil3":0.925,"dil4":1.025,"dil5":1.075,"dil6":0.875,"rots":[5,-15,-25,25,-5,15],"dils":[1.125,0.975,0.925,1.025,1.075,0.875],"loop_number":"NA","everTouched":null},{"id":"test","shape":"rightKite","outlier_type":2,"choice":3,"outlierPosition":3,"success":true,"majorityOfMostRegularShapes":true,"rt":5383.00000000163,"rot1":15,"rot2":5,"rot3":-25,"rot4":25,"rot5":-5,"rot6":-15,"dil1":1.125,"dil2":1.075,"dil3":1.025,"dil4":0.925,"dil5":0.875,"dil6":0.975,"rots":[15,5,-25,25,-5,-15],"dils":[1.125,1.075,1.025,0.925,0.875,0.975],"loop_number":"NA","everTouched":null},{"id":"test","shape":"rectangle","outlier_type":0,"choice":2,"outlierPosition":2,"success":true,"majorityOfMostRegularShapes":true,"rt":3060.699999998178,"rot1":15,"rot2":5,"rot3":25,"rot4":-15,"rot5":-5,"rot6":-25,"dil1":1.025,"dil2":0.925,"dil3":1.075,"dil4":0.975,"dil5":1.125,"dil6":0.875,"rots":[15,5,25,-15,-5,-25],"dils":[1.025,0.925,1.075,0.975,1.125,0.875],"loop_number":"NA","everTouched":null},{"id":"test","shape":"rightKite","outlier_type":1,"choice":4,"outlierPosition":4,"success":true,"majorityOfMostRegularShapes":true,"rt":7841.400000001158,"rot1":-25,"rot2":15,"rot3":5,"rot4":25,"rot5":-5,"rot6":-15,"dil1":0.925,"dil2":1.075,"dil3":0.975,"dil4":0.875,"dil5":1.125,"dil6":1.025,"rots":[-25,15,5,25,-5,-15],"dils":[0.925,1.075,0.975,0.875,1.125,1.025],"loop_number":"NA","everTouched":null},{"id":"test","shape":"kite","outlier_type":3,"choice":1,"outlierPosition":1,"success":true,"majorityOfMostRegularShapes":true,"rt":4332.70000000266,"rot1":-25,"rot2":-5,"rot3":25,"rot4":-15,"rot5":15,"rot6":5,"dil1":0.875,"dil2":1.025,"dil3":0.975,"dil4":1.125,"dil5":0.925,"dil6":1.075,"rots":[-25,-5,25,-15,15,5],"dils":[0.875,1.025,0.975,1.125,0.925,1.075],"loop_number":"NA","everTouched":null},{"id":"test","shape":"square","outlier_type":2,"choice":3,"outlierPosition":3,"success":true,"majorityOfMostRegularShapes":true,"rt":2855.599999998958,"rot1":5,"rot2":-5,"rot3":-25,"rot4":15,"rot5":25,"rot6":-15,"dil1":0.875,"dil2":0.925,"dil3":0.975,"dil4":1.025,"dil5":1.075,"dil6":1.125,"rots":[5,-5,-25,15,25,-15],"dils":[0.875,0.925,0.975,1.025,1.075,1.125],"loop_number":"NA","everTouched":null},{"id":"test","shape":"trapezoid","outlier_type":0,"choice":5,"outlierPosition":4,"success":false,"majorityOfMostRegularShapes":true,"rt":7498.399999996764,"rot1":25,"rot2":15,"rot3":5,"rot4":-15,"rot5":-5,"rot6":-25,"dil1":1.025,"dil2":0.975,"dil3":1.125,"dil4":1.075,"dil5":0.925,"dil6":0.875,"rots":[25,15,5,-15,-5,-25],"dils":[1.025,0.975,1.125,1.075,0.925,0.875],"loop_number":"NA","everTouched":null},{"id":"test","shape":"isoTrapezoid","outlier_type":1,"choice":5,"outlierPosition":5,"success":true,"majorityOfMostRegularShapes":true,"rt":4457.800000000134,"rot1":25,"rot2":-15,"rot3":-5,"rot4":5,"rot5":-25,"rot6":15,"dil1":1.025,"dil2":1.125,"dil3":1.075,"dil4":0.875,"dil5":0.925,"dil6":0.975,"rots":[25,-15,-5,5,-25,15],"dils":[1.025,1.125,1.075,0.875,0.925,0.975],"loop_number":"NA","everTouched":null},{"id":"test","shape":"kite","outlier_type":2,"choice":0,"outlierPosition":0,"success":true,"majorityOfMostRegularShapes":true,"rt":4106.500000001659,"rot1":25,"rot2":5,"rot3":-15,"rot4":-5,"rot5":-25,"rot6":15,"dil1":1.125,"dil2":0.875,"dil3":0.925,"dil4":1.075,"dil5":0.975,"dil6":1.025,"rots":[25,5,-15,-5,-25,15],"dils":[1.125,0.875,0.925,1.075,0.975,1.025],"loop_number":"NA","everTouched":null},{"id":"test","shape":"rectangle","outlier_type":3,"choice":1,"outlierPosition":1,"success":true,"majorityOfMostRegularShapes":true,"rt":2580.600000001141,"rot1":25,"rot2":5,"rot3":-15,"rot4":-5,"rot5":-25,"rot6":15,"dil1":1.075,"dil2":1.025,"dil3":0.875,"dil4":0.925,"dil5":1.125,"dil6":0.975,"rots":[25,5,-15,-5,-25,15],"dils":[1.075,1.025,0.875,0.925,1.125,0.975],"loop_number":"NA","everTouched":null},{"id":"test","shape":"isoTrapezoid","outlier_type":0,"choice":1,"outlierPosition":1,"success":true,"majorityOfMostRegularShapes":true,"rt":5398.800000002724,"rot1":-25,"rot2":15,"rot3":-15,"rot4":-5,"rot5":25,"rot6":5,"dil1":1.025,"dil2":0.975,"dil3":0.925,"dil4":1.125,"dil5":0.875,"dil6":1.075,"rots":[-25,15,-15,-5,25,5],"dils":[1.025,0.975,0.925,1.125,0.875,1.075],"loop_number":"NA","everTouched":null},{"id":"test","shape":"parallelogram","outlier_type":1,"choice":2,"outlierPosition":2,"success":true,"majorityOfMostRegularShapes":true,"rt":4919.099999999162,"rot1":-5,"rot2":15,"rot3":25,"rot4":-15,"rot5":-25,"rot6":5,"dil1":0.925,"dil2":1.075,"dil3":1.025,"dil4":0.975,"dil5":1.125,"dil6":0.875,"rots":[-5,15,25,-15,-25,5],"dils":[0.925,1.075,1.025,0.975,1.125,0.875],"loop_number":"NA","everTouched":null},{"id":"test","shape":"rustedHinge","outlier_type":0,"choice":1,"outlierPosition":4,"success":false,"majorityOfMostRegularShapes":true,"rt":13676.600000002538,"rot1":-5,"rot2":25,"rot3":-15,"rot4":15,"rot5":-25,"rot6":5,"dil1":1.125,"dil2":0.875,"dil3":0.925,"dil4":1.075,"dil5":0.975,"dil6":1.025,"rots":[-5,25,-15,15,-25,5],"dils":[1.125,0.875,0.925,1.075,0.975,1.025],"loop_number":"NA","everTouched":null},{"id":"test","shape":"rectangle","outlier_type":1,"choice":2,"outlierPosition":2,"success":true,"majorityOfMostRegularShapes":true,"rt":2968.399999997928,"rot1":25,"rot2":15,"rot3":5,"rot4":-5,"rot5":-25,"rot6":-15,"dil1":1.125,"dil2":1.025,"dil3":0.975,"dil4":1.075,"dil5":0.925,"dil6":0.875,"rots":[25,15,5,-5,-25,-15],"dils":[1.125,1.025,0.975,1.075,0.925,0.875],"loop_number":"NA","everTouched":null},{"id":"test","shape":"hinge","outlier_type":2,"choice":0,"outlierPosition":0,"success":true,"majorityOfMostRegularShapes":true,"rt":3800.299999998999,"rot1":5,"rot2":-5,"rot3":-15,"rot4":25,"rot5":-25,"rot6":15,"dil1":0.925,"dil2":0.975,"dil3":1.125,"dil4":1.075,"dil5":0.875,"dil6":1.025,"rots":[5,-5,-15,25,-25,15],"dils":[0.925,0.975,1.125,1.075,0.875,1.025],"loop_number":"NA","everTouched":null},{"id":"test","shape":"random","outlier_type":0,"choice":1,"outlierPosition":4,"success":false,"majorityOfMostRegularShapes":true,"rt":15243.700000002747,"rot1":-15,"rot2":-25,"rot3":25,"rot4":15,"rot5":-5,"rot6":5,"dil1":0.875,"dil2":1.025,"dil3":0.975,"dil4":1.075,"dil5":0.925,"dil6":1.125,"rots":[-15,-25,25,15,-5,5],"dils":[0.875,1.025,0.975,1.075,0.925,1.125],"loop_number":"NA","everTouched":null},{"id":"test","shape":"losange","outlier_type":1,"choice":5,"outlierPosition":5,"success":true,"majorityOfMostRegularShapes":true,"rt":4088.999999999942,"rot1":-5,"rot2":25,"rot3":15,"rot4":-25,"rot5":-15,"rot6":5,"dil1":0.875,"dil2":1.125,"dil3":0.975,"dil4":0.925,"dil5":1.075,"dil6":1.025,"rots":[-5,25,15,-25,-15,5],"dils":[0.875,1.125,0.975,0.925,1.075,1.025],"loop_number":"NA","everTouched":null},{"id":"test","shape":"rectangle","outlier_type":2,"choice":1,"outlierPosition":1,"success":true,"majorityOfMostRegularShapes":true,"rt":2230.999999999767,"rot1":25,"rot2":5,"rot3":-25,"rot4":-5,"rot5":-15,"rot6":15,"dil1":0.925,"dil2":1.075,"dil3":0.875,"dil4":1.025,"dil5":1.125,"dil6":0.975,"rots":[25,5,-25,-5,-15,15],"dils":[0.925,1.075,0.875,1.025,1.125,0.975],"loop_number":"NA","everTouched":null},{"id":"test","shape":"kite","outlier_type":0,"choice":2,"outlierPosition":2,"success":true,"majorityOfMostRegularShapes":true,"rt":17033.10000000056,"rot1":-15,"rot2":5,"rot3":-25,"rot4":-5,"rot5":25,"rot6":15,"dil1":1.025,"dil2":0.975,"dil3":0.925,"dil4":1.075,"dil5":1.125,"dil6":0.875,"rots":[-15,5,-25,-5,25,15],"dils":[1.025,0.975,0.925,1.075,1.125,0.875],"loop_number":"NA","everTouched":null},{"id":"test","shape":"square","outlier_type":1,"choice":2,"outlierPosition":2,"success":true,"majorityOfMostRegularShapes":true,"rt":1788.6999999973923,"rot1":-25,"rot2":5,"rot3":-15,"rot4":25,"rot5":-5,"rot6":15,"dil1":0.925,"dil2":1.125,"dil3":1.075,"dil4":0.875,"dil5":0.975,"dil6":1.025,"rots":[-25,5,-15,25,-5,15],"dils":[0.925,1.125,1.075,0.875,0.975,1.025],"loop_number":"NA","everTouched":null},{"id":"test","shape":"trapezoid","outlier_type":2,"choice":0,"outlierPosition":0,"success":true,"majorityOfMostRegularShapes":true,"rt":7232.700000000477,"rot1":5,"rot2":25,"rot3":-5,"rot4":-25,"rot5":-15,"rot6":15,"dil1":1.075,"dil2":0.875,"dil3":0.925,"dil4":1.025,"dil5":0.975,"dil6":1.125,"rots":[5,25,-5,-25,-15,15],"dils":[1.075,0.875,0.925,1.025,0.975,1.125],"loop_number":"NA","everTouched":null},{"id":"test","shape":"rightKite","outlier_type":3,"choice":2,"outlierPosition":2,"success":true,"majorityOfMostRegularShapes":true,"rt":4767.3999999969965,"rot1":-25,"rot2":15,"rot3":-5,"rot4":-15,"rot5":5,"rot6":25,"dil1":0.975,"dil2":0.875,"dil3":0.925,"dil4":1.075,"dil5":1.025,"dil6":1.125,"rots":[-25,15,-5,-15,5,25],"dils":[0.975,0.875,0.925,1.075,1.025,1.125],"loop_number":"NA","everTouched":null},{"id":"test","shape":"square","outlier_type":0,"choice":5,"outlierPosition":5,"success":true,"majorityOfMostRegularShapes":true,"rt":4044.5,"rot1":5,"rot2":-5,"rot3":-25,"rot4":15,"rot5":-15,"rot6":25,"dil1":0.925,"dil2":1.025,"dil3":1.125,"dil4":0.875,"dil5":0.975,"dil6":1.075,"rots":[5,-5,-25,15,-15,25],"dils":[0.925,1.025,1.125,0.875,0.975,1.075],"loop_number":"NA","everTouched":null},{"id":"test","shape":"random","outlier_type":3,"choice":3,"outlierPosition":3,"success":true,"majorityOfMostRegularShapes":true,"rt":6797.599999998056,"rot1":-25,"rot2":-5,"rot3":25,"rot4":5,"rot5":-15,"rot6":15,"dil1":0.975,"dil2":1.075,"dil3":1.025,"dil4":0.875,"dil5":1.125,"dil6":0.925,"rots":[-25,-5,25,5,-15,15],"dils":[0.975,1.075,1.025,0.875,1.125,0.925],"loop_number":"NA","everTouched":null},{"id":"test","shape":"trapezoid","outlier_type":1,"choice":1,"outlierPosition":1,"success":true,"majorityOfMostRegularShapes":true,"rt":4891.100000000733,"rot1":-15,"rot2":-25,"rot3":15,"rot4":-5,"rot5":25,"rot6":5,"dil1":0.875,"dil2":0.975,"dil3":1.025,"dil4":1.125,"dil5":0.925,"dil6":1.075,"rots":[-15,-25,15,-5,25,5],"dils":[0.875,0.975,1.025,1.125,0.925,1.075],"loop_number":"NA","everTouched":null},{"id":"test","shape":"parallelogram","outlier_type":2,"choice":0,"outlierPosition":0,"success":true,"majorityOfMostRegularShapes":true,"rt":3645.7999999984168,"rot1":5,"rot2":-15,"rot3":-25,"rot4":15,"rot5":-5,"rot6":25,"dil1":1.075,"dil2":0.875,"dil3":1.125,"dil4":0.975,"dil5":1.025,"dil6":0.925,"rots":[5,-15,-25,15,-5,25],"dils":[1.075,0.875,1.125,0.975,1.025,0.925],"loop_number":"NA","everTouched":null},{"id":"test","shape":"hinge","outlier_type":0,"choice":1,"outlierPosition":1,"success":true,"majorityOfMostRegularShapes":true,"rt":8190.600000001723,"rot1":-5,"rot2":25,"rot3":5,"rot4":-25,"rot5":-15,"rot6":15,"dil1":0.925,"dil2":1.125,"dil3":0.875,"dil4":0.975,"dil5":1.025,"dil6":1.075,"rots":[-5,25,5,-25,-15,15],"dils":[0.925,1.125,0.875,0.975,1.025,1.075],"loop_number":"NA","everTouched":null},{"id":"test","shape":"rustedHinge","outlier_type":3,"choice":2,"outlierPosition":2,"success":true,"majorityOfMostRegularShapes":true,"rt":4875.500000001863,"rot1":5,"rot2":-5,"rot3":-15,"rot4":25,"rot5":15,"rot6":-25,"dil1":0.925,"dil2":0.875,"dil3":1.025,"dil4":0.975,"dil5":1.125,"dil6":1.075,"rots":[5,-5,-15,25,15,-25],"dils":[0.925,0.875,1.025,0.975,1.125,1.075],"loop_number":"NA","everTouched":null},{"id":"test","shape":"losange","outlier_type":2,"choice":1,"outlierPosition":1,"success":true,"majorityOfMostRegularShapes":true,"rt":3345.9999999976717,"rot1":-5,"rot2":-15,"rot3":15,"rot4":25,"rot5":-25,"rot6":5,"dil1":1.025,"dil2":1.075,"dil3":0.975,"dil4":0.925,"dil5":0.875,"dil6":1.125,"rots":[-5,-15,15,25,-25,5],"dils":[1.025,1.075,0.975,0.925,0.875,1.125],"loop_number":"NA","everTouched":null},{"id":"test","shape":"parallelogram","outlier_type":0,"choice":4,"outlierPosition":4,"success":true,"majorityOfMostRegularShapes":true,"rt":8618.800000000163,"rot1":-25,"rot2":15,"rot3":-5,"rot4":-15,"rot5":5,"rot6":25,"dil1":1.025,"dil2":1.075,"dil3":0.925,"dil4":0.975,"dil5":1.125,"dil6":0.875,"rots":[-25,15,-5,-15,5,25],"dils":[1.025,1.075,0.925,0.975,1.125,0.875],"loop_number":"NA","everTouched":null}],"desiredDistance":0.3,"trial_type":"oddball-grid","trial_index":3,"time_elapsed":434604,"internal_node_id":"0.0-3.0","ID":"6tavb9lkp3"},{"success":true,"trial_type":"fullscreen","trial_index":4,"time_elapsed":440322,"internal_node_id":"0.0-4.0","ID":"6tavb9lkp3"}]