"success","trial_type","trial_index","time_elapsed","internal_node_id","ID","rt","stimulus","button_pressed","button_pressed_text"
"true","fullscreen","0","5699","0.0-0.0","50ppjg6by9","","","",""
"","html-button-response","1","6500","0.0-1.0-0.0","50ppjg6by9","783.8000000010652","<span class=stimul>à</span>","0","Correct"
"","html-button-response","2","6922","0.0-1.0-0.1","50ppjg6by9","417.49999999956344","<span class=stimul>où</span>","0","Correct"
"","html-button-response","3","7390","0.0-1.0-0.2","50ppjg6by9","463.9999999999418","<span class=stimul>la</span>","0","Correct"
"","html-button-response","4","7851","0.0-1.0-0.3","50ppjg6by9","456.9000000010419","<span class=stimul>au</span>","0","Correct"
"","html-button-response","5","8303","0.0-1.0-0.4","50ppjg6by9","447.7000000006228","<span class=stimul>tu</span>","0","Correct"
"","html-button-response","6","8805","0.0-1.0-0.5","50ppjg6by9","498.60000000262517","<span class=stimul>un</span>","0","Correct"
"","html-button-response","7","9379","0.0-1.0-0.6","50ppjg6by9","569.7000000000116","<span class=stimul>il</span>","0","Correct"
"","html-button-response","8","9746","0.0-1.0-0.7","50ppjg6by9","362.1999999995751","<span class=stimul>été</span>","0","Correct"
"","html-button-response","9","10242","0.0-1.0-0.8","50ppjg6by9","492.3999999991793","<span class=stimul>on</span>","0","Correct"
"","html-button-response","10","10765","0.0-1.0-0.9","50ppjg6by9","519.6000000032654","<span class=stimul>mur</span>","0","Correct"
"","html-button-response","11","11384","0.0-1.0-0.10","50ppjg6by9","615.3999999987718","<span class=stimul>ni</span>","0","Correct"
"","html-button-response","12","11943","0.0-1.0-0.11","50ppjg6by9","555.5999999996857","<span class=stimul>sur</span>","0","Correct"
"","html-button-response","13","12432","0.0-1.0-0.12","50ppjg6by9","484.9999999969441","<span class=stimul>qui</span>","0","Correct"
"","html-button-response","14","12931","0.0-1.0-0.13","50ppjg6by9","495.9000000017113","<span class=stimul>vélo</span>","0","Correct"
"","html-button-response","15","13436","0.0-1.0-0.14","50ppjg6by9","502.1000000015192","<span class=stimul>par</span>","0","Correct"
"","html-button-response","16","14061","0.0-1.0-0.15","50ppjg6by9","621.0000000028231","<span class=stimul>feu</span>","0","Correct"
"","html-button-response","17","14601","0.0-1.0-0.16","50ppjg6by9","536.7999999980384","<span class=stimul>ce</span>","0","Correct"
"","html-button-response","18","15106","0.0-1.0-0.17","50ppjg6by9","501.4999999984866","<span class=stimul>peur</span>","0","Correct"
"","html-button-response","19","15806","0.0-1.0-0.18","50ppjg6by9","696.4000000007218","<span class=stimul>ami</span>","0","Correct"
"","html-button-response","20","16495","0.0-1.0-0.19","50ppjg6by9","685.1999999998952","<span class=stimul>moto</span>","0","Correct"
"","html-button-response","21","17233","0.0-1.0-0.20","50ppjg6by9","734.4000000011874","<span class=stimul>peau</span>","0","Correct"
"","html-button-response","22","17830","0.0-1.0-0.21","50ppjg6by9","594.0999999984342","<span class=stimul>lune</span>","0","Correct"
"","html-button-response","23","18379","0.0-1.0-0.22","50ppjg6by9","545.3999999990629","<span class=stimul>gare</span>","0","Correct"
"","html-button-response","24","19003","0.0-1.0-0.23","50ppjg6by9","620.9000000017113","<span class=stimul>lire</span>","0","Correct"
"","html-button-response","25","19568","0.0-1.0-0.24","50ppjg6by9","560.1999999998952","<span class=stimul>bon</span>","0","Correct"
"","html-button-response","26","21830","0.0-1.0-0.25","50ppjg6by9","2258.399999998801","<span class=stimul>mardi</span>","0","Correct"
"","html-button-response","27","22711","0.0-1.0-0.26","50ppjg6by9","877.7000000009139","<span class=stimul>col</span>","0","Correct"
"","html-button-response","28","23555","0.0-1.0-0.27","50ppjg6by9","840.4999999984284","<span class=stimul>avril</span>","0","Correct"
"","html-button-response","29","24228","0.0-1.0-0.28","50ppjg6by9","668.6000000008789","<span class=stimul>roi</span>","0","Correct"
"","html-button-response","30","24776","0.0-1.0-0.29","50ppjg6by9","544.4999999999709","<span class=stimul>faire</span>","0","Correct"
"","html-button-response","31","26032","0.0-1.0-0.30","50ppjg6by9","1252.3000000001048","<span class=stimul>facile</span>","0","Correct"
"","html-button-response","32","27127","0.0-1.0-0.31","50ppjg6by9","1091.8000000019674","<span class=stimul>cheval</span>","0","Correct"
"","html-button-response","33","30471","0.0-1.0-0.32","50ppjg6by9","3340.9999999967113","<span class=stimul>vrai</span>","0","Correct"
"","html-button-response","34","31068","0.0-1.0-0.33","50ppjg6by9","592.000000000553","<span class=stimul>ligne</span>","0","Correct"
"","html-button-response","35","31639","0.0-1.0-0.34","50ppjg6by9","567.8999999981897","<span class=stimul>porte</span>","0","Correct"
"","html-button-response","36","33101","0.0-1.0-0.35","50ppjg6by9","1458.0999999998312","<span class=stimul>autre</span>","0","Correct"
"","html-button-response","37","34369","0.0-1.0-0.36","50ppjg6by9","1264.999999999418","<span class=stimul>loup</span>","0","Correct"
"","html-button-response","38","34994","0.0-1.0-0.37","50ppjg6by9","621.1000000002969","<span class=stimul>soir</span>","0","Correct"
"","html-button-response","39","35556","0.0-1.0-0.38","50ppjg6by9","557.8999999997905","<span class=stimul>page</span>","0","Correct"
"","html-button-response","40","37087","0.0-1.0-0.39","50ppjg6by9","1526.9000000007509","<span class=stimul>raisin</span>","0","Correct"
"","html-button-response","41","37923","0.0-1.0-0.40","50ppjg6by9","832.300000001851","<span class=stimul>car</span>","0","Correct"
"","html-button-response","42","38652","0.0-1.0-0.41","50ppjg6by9","725.0000000021828","<span class=stimul>sucre</span>","0","Correct"
"","html-button-response","43","40420","0.0-1.0-0.42","50ppjg6by9","1764.9000000019441","<span class=stimul>chat</span>","0","Correct"
"","html-button-response","44","41017","0.0-1.0-0.43","50ppjg6by9","593.3999999979278","<span class=stimul>matin</span>","0","Correct"
"","html-button-response","45","41606","0.0-1.0-0.44","50ppjg6by9","585.4999999974098","<span class=stimul>trésor</span>","0","Correct"
"","html-button-response","46","45248","0.0-1.0-0.45","50ppjg6by9","3637.799999996787","<span class=stimul>soixante</span>","0","Correct"
"","html-button-response","47","45931","0.0-1.0-0.46","50ppjg6by9","678.5999999992782","<span class=stimul>lundi</span>","0","Correct"
"","html-button-response","48","46973","0.0-1.0-0.47","50ppjg6by9","1037.899999999354","<span class=stimul>rose</span>","0","Correct"
"","html-button-response","49","51735","0.0-1.0-0.48","50ppjg6by9","4758.399999998801","<span class=stimul>visage</span>","0","Correct"
"","html-button-response","50","53010","0.0-1.0-0.49","50ppjg6by9","1270.3000000001339","<span class=stimul>six</span>","0","Correct"
"","html-button-response","51","54934","0.0-1.0-0.50","50ppjg6by9","1920.2000000004773","<span class=stimul>ciseau</span>","0","Correct"
"","html-button-response","52","56277","0.0-1.0-0.51","50ppjg6by9","1339.9000000026717","<span class=stimul>août</span>","0","Correct"
"","html-button-response","53","58072","0.0-1.0-0.52","50ppjg6by9","1791.0000000010768","<span class=stimul>pays</span>","0","Correct"
"","html-button-response","54","59453","0.0-1.0-0.53","50ppjg6by9","1377.4999999986903","<span class=stimul>balai</span>","0","Correct"
"","html-button-response","55","60597","0.0-1.0-0.54","50ppjg6by9","1140.6000000024505","<span class=stimul>fille</span>","0","Correct"
"","html-button-response","56","61548","0.0-1.0-0.55","50ppjg6by9","947.599999999511","<span class=stimul>sept</span>","0","Correct"
"","html-button-response","57","62328","0.0-1.0-0.56","50ppjg6by9","775.8000000030734","<span class=stimul>lourd</span>","0","Correct"
"","html-button-response","58","62940","0.0-1.0-0.57","50ppjg6by9","608.8999999992666","<span class=stimul>femme</span>","0","Correct"
"","html-button-response","59","65420","0.0-1.0-0.58","50ppjg6by9","2476.3999999995576","<span class=stimul>garage</span>","0","Correct"
"","html-button-response","60","65700","0.0-1.0-0.59","50ppjg6by9","","","",""
