[{"success":true,"trial_type":"fullscreen","trial_index":0,"time_elapsed":21290,"internal_node_id":"0.0-0.0","ID":"wtc1en8xqx"},{"results":[{"id":"train-images","shape":"4","outlier_type":"NA","choice":1,"outlierPosition":1,"success":true,"majorityOfMostRegularShapes":"NA","rt":9100.999999998749,"rot1":15,"rot2":-15,"rot3":5,"rot4":-25,"rot5":25,"rot6":-5,"dil1":1.125,"dil2":1.075,"dil3":1.025,"dil4":0.925,"dil5":0.975,"dil6":0.875,"rots":[15,-15,5,-25,25,-5],"dils":[1.125,1.075,1.025,0.925,0.975,0.875],"loop_number":1,"everTouched":null},{"id":"train-images","shape":"8","outlier_type":"NA","choice":1,"outlierPosition":1,"success":true,"majorityOfMostRegularShapes":"NA","rt":1383.5999999973865,"rot1":-25,"rot2":-5,"rot3":-15,"rot4":25,"rot5":15,"rot6":5,"dil1":1.025,"dil2":0.875,"dil3":0.975,"dil4":0.925,"dil5":1.125,"dil6":1.075,"rots":[-25,-5,-15,25,15,5],"dils":[1.025,0.875,0.975,0.925,1.125,1.075],"loop_number":1,"everTouched":null},{"id":"train-images","shape":"10","outlier_type":"NA","choice":3,"outlierPosition":3,"success":true,"majorityOfMostRegularShapes":"NA","rt":1844.199999999546,"rot1":15,"rot2":25,"rot3":-25,"rot4":-15,"rot5":-5,"rot6":5,"dil1":0.975,"dil2":1.075,"dil3":0.925,"dil4":1.025,"dil5":0.875,"dil6":1.125,"rots":[15,25,-25,-15,-5,5],"dils":[0.975,1.075,0.925,1.025,0.875,1.125],"loop_number":1,"everTouched":null},{"id":"train-images","shape":"2","outlier_type":"NA","choice":0,"outlierPosition":0,"success":true,"majorityOfMostRegularShapes":"NA","rt":1302.5999999990745,"rot1":-15,"rot2":15,"rot3":25,"rot4":-25,"rot5":-5,"rot6":5,"dil1":0.925,"dil2":0.975,"dil3":1.025,"dil4":1.075,"dil5":1.125,"dil6":0.875,"rots":[-15,15,25,-25,-5,5],"dils":[0.925,0.975,1.025,1.075,1.125,0.875],"loop_number":1,"everTouched":null},{"id":"train-images","shape":"9","outlier_type":"NA","choice":2,"outlierPosition":2,"success":true,"majorityOfMostRegularShapes":"NA","rt":1340.700000000652,"rot1":25,"rot2":5,"rot3":15,"rot4":-15,"rot5":-5,"rot6":-25,"dil1":0.875,"dil2":0.975,"dil3":1.125,"dil4":1.075,"dil5":1.025,"dil6":0.925,"rots":[25,5,15,-15,-5,-25],"dils":[0.875,0.975,1.125,1.075,1.025,0.925],"loop_number":1,"everTouched":null},{"id":"train-images","shape":"7","outlier_type":"NA","choice":2,"outlierPosition":2,"success":true,"majorityOfMostRegularShapes":"NA","rt":3023.1999999996333,"rot1":-5,"rot2":-15,"rot3":25,"rot4":15,"rot5":5,"rot6":-25,"dil1":0.925,"dil2":0.875,"dil3":1.125,"dil4":1.075,"dil5":1.025,"dil6":0.975,"rots":[-5,-15,25,15,5,-25],"dils":[0.925,0.875,1.125,1.075,1.025,0.975],"loop_number":1,"everTouched":null},{"id":"train-images","shape":"6","outlier_type":"NA","choice":3,"outlierPosition":3,"success":true,"majorityOfMostRegularShapes":"NA","rt":4334.900000001653,"rot1":5,"rot2":-15,"rot3":-5,"rot4":-25,"rot5":15,"rot6":25,"dil1":1.075,"dil2":1.025,"dil3":0.875,"dil4":0.975,"dil5":1.125,"dil6":0.925,"rots":[5,-15,-5,-25,15,25],"dils":[1.075,1.025,0.875,0.975,1.125,0.925],"loop_number":1,"everTouched":null},{"id":"train-images","shape":"3","outlier_type":"NA","choice":4,"outlierPosition":4,"success":true,"majorityOfMostRegularShapes":"NA","rt":1725.9999999987485,"rot1":-15,"rot2":15,"rot3":5,"rot4":-5,"rot5":25,"rot6":-25,"dil1":0.975,"dil2":0.925,"dil3":1.125,"dil4":0.875,"dil5":1.075,"dil6":1.025,"rots":[-15,15,5,-5,25,-25],"dils":[0.975,0.925,1.125,0.875,1.075,1.025],"loop_number":1,"everTouched":null},{"id":"train-images","shape":"5","outlier_type":"NA","choice":5,"outlierPosition":5,"success":true,"majorityOfMostRegularShapes":"NA","rt":1937.3999999988882,"rot1":5,"rot2":15,"rot3":25,"rot4":-25,"rot5":-15,"rot6":-5,"dil1":1.025,"dil2":1.075,"dil3":0.925,"dil4":0.875,"dil5":1.125,"dil6":0.975,"rots":[5,15,25,-25,-15,-5],"dils":[1.025,1.075,0.925,0.875,1.125,0.975],"loop_number":1,"everTouched":null},{"id":"train-images","shape":"1","outlier_type":"NA","choice":0,"outlierPosition":0,"success":true,"majorityOfMostRegularShapes":"NA","rt":4871.500000001106,"rot1":-25,"rot2":15,"rot3":-15,"rot4":5,"rot5":25,"rot6":-5,"dil1":0.975,"dil2":1.025,"dil3":0.875,"dil4":1.075,"dil5":1.125,"dil6":0.925,"rots":[-25,15,-15,5,25,-5],"dils":[0.975,1.025,0.875,1.075,1.125,0.925],"loop_number":1,"everTouched":null}],"trial_type":"oddball-grid-image","trial_index":1,"time_elapsed":80301,"internal_node_id":"0.0-1.0","ID":"wtc1en8xqx"},{"results":[{"id":"train","shape":null,"outlier_type":null,"choice":2,"outlierPosition":2,"success":true,"majorityOfMostRegularShapes":null,"rt":2070.9999999999127,"rot1":-25,"rot2":-5,"rot3":15,"rot4":-15,"rot5":25,"rot6":5,"dil1":1.125,"dil2":1.025,"dil3":0.925,"dil4":0.875,"dil5":0.975,"dil6":1.075,"rots":[-25,-5,15,-15,25,5],"dils":[1.125,1.025,0.925,0.875,0.975,1.075],"loop_number":1,"everTouched":null},{"id":"train","shape":null,"outlier_type":null,"choice":3,"outlierPosition":3,"success":true,"majorityOfMostRegularShapes":null,"rt":5375.2000000022235,"rot1":5,"rot2":-15,"rot3":25,"rot4":-25,"rot5":-5,"rot6":15,"dil1":0.925,"dil2":1.025,"dil3":0.875,"dil4":0.975,"dil5":1.075,"dil6":1.125,"rots":[5,-15,25,-25,-5,15],"dils":[0.925,1.025,0.875,0.975,1.075,1.125],"loop_number":1,"everTouched":null},{"id":"train","shape":null,"outlier_type":null,"choice":5,"outlierPosition":5,"success":true,"majorityOfMostRegularShapes":null,"rt":3100.1999999971304,"rot1":25,"rot2":15,"rot3":-25,"rot4":5,"rot5":-15,"rot6":-5,"dil1":0.925,"dil2":0.875,"dil3":1.125,"dil4":1.025,"dil5":1.075,"dil6":0.975,"rots":[25,15,-25,5,-15,-5],"dils":[0.925,0.875,1.125,1.025,1.075,0.975],"loop_number":1,"everTouched":null},{"id":"train","shape":null,"outlier_type":null,"choice":4,"outlierPosition":4,"success":true,"majorityOfMostRegularShapes":null,"rt":2019.7000000007392,"rot1":15,"rot2":-15,"rot3":25,"rot4":-25,"rot5":5,"rot6":-5,"dil1":0.975,"dil2":1.025,"dil3":0.925,"dil4":0.875,"dil5":1.075,"dil6":1.125,"rots":[15,-15,25,-25,5,-5],"dils":[0.975,1.025,0.925,0.875,1.075,1.125],"loop_number":1,"everTouched":null},{"id":"train","shape":null,"outlier_type":null,"choice":5,"outlierPosition":5,"success":true,"majorityOfMostRegularShapes":null,"rt":3149.5000000031723,"rot1":-25,"rot2":15,"rot3":-15,"rot4":25,"rot5":5,"rot6":-5,"dil1":0.925,"dil2":0.875,"dil3":1.075,"dil4":1.125,"dil5":0.975,"dil6":1.025,"rots":[-25,15,-15,25,5,-5],"dils":[0.925,0.875,1.075,1.125,0.975,1.025],"loop_number":1,"everTouched":null},{"id":"train","shape":null,"outlier_type":null,"choice":1,"outlierPosition":1,"success":true,"majorityOfMostRegularShapes":null,"rt":4586.799999997311,"rot1":-5,"rot2":25,"rot3":-25,"rot4":15,"rot5":5,"rot6":-15,"dil1":1.075,"dil2":1.125,"dil3":1.025,"dil4":0.875,"dil5":0.975,"dil6":0.925,"rots":[-5,25,-25,15,5,-15],"dils":[1.075,1.125,1.025,0.875,0.975,0.925],"loop_number":1,"everTouched":null}],"desiredDistance":0.3,"trial_type":"oddball-grid-easy","trial_index":2,"time_elapsed":116481,"internal_node_id":"0.0-2.0","ID":"wtc1en8xqx"},{"results":[{"id":"test","shape":"square","outlier_type":2,"choice":3,"outlierPosition":3,"success":true,"majorityOfMostRegularShapes":true,"rt":2136.9999999988067,"rot1":-25,"rot2":-5,"rot3":5,"rot4":-15,"rot5":25,"rot6":15,"dil1":1.075,"dil2":1.025,"dil3":0.875,"dil4":0.975,"dil5":1.125,"dil6":0.925,"rots":[-25,-5,5,-15,25,15],"dils":[1.075,1.025,0.875,0.975,1.125,0.925],"loop_number":"NA","everTouched":null},{"id":"test","shape":"rustedHinge","outlier_type":1,"choice":5,"outlierPosition":5,"success":true,"majorityOfMostRegularShapes":true,"rt":4674.800000000687,"rot1":25,"rot2":-15,"rot3":-25,"rot4":15,"rot5":-5,"rot6":5,"dil1":1.125,"dil2":0.975,"dil3":1.075,"dil4":0.875,"dil5":1.025,"dil6":0.925,"rots":[25,-15,-25,15,-5,5],"dils":[1.125,0.975,1.075,0.875,1.025,0.925],"loop_number":"NA","everTouched":null},{"id":"test","shape":"trapezoid","outlier_type":0,"choice":2,"outlierPosition":3,"success":false,"majorityOfMostRegularShapes":true,"rt":2132.0999999989,"rot1":-25,"rot2":-5,"rot3":15,"rot4":5,"rot5":-15,"rot6":25,"dil1":0.975,"dil2":1.075,"dil3":1.125,"dil4":1.025,"dil5":0.925,"dil6":0.875,"rots":[-25,-5,15,5,-15,25],"dils":[0.975,1.075,1.125,1.025,0.925,0.875],"loop_number":"NA","everTouched":null},{"id":"test","shape":"random","outlier_type":1,"choice":4,"outlierPosition":4,"success":true,"majorityOfMostRegularShapes":true,"rt":19642.20000000205,"rot1":-25,"rot2":15,"rot3":-15,"rot4":-5,"rot5":25,"rot6":5,"dil1":1.025,"dil2":0.925,"dil3":0.875,"dil4":1.075,"dil5":1.125,"dil6":0.975,"rots":[-25,15,-15,-5,25,5],"dils":[1.025,0.925,0.875,1.075,1.125,0.975],"loop_number":"NA","everTouched":null},{"id":"test","shape":"rustedHinge","outlier_type":3,"choice":0,"outlierPosition":0,"success":true,"majorityOfMostRegularShapes":true,"rt":4868.499999996857,"rot1":25,"rot2":-15,"rot3":-25,"rot4":-5,"rot5":15,"rot6":5,"dil1":1.025,"dil2":0.925,"dil3":1.125,"dil4":0.875,"dil5":1.075,"dil6":0.975,"rots":[25,-15,-25,-5,15,5],"dils":[1.025,0.925,1.125,0.875,1.075,0.975],"loop_number":"NA","everTouched":null},{"id":"test","shape":"square","outlier_type":1,"choice":0,"outlierPosition":0,"success":true,"majorityOfMostRegularShapes":true,"rt":2002.4999999986903,"rot1":5,"rot2":15,"rot3":25,"rot4":-5,"rot5":-15,"rot6":-25,"dil1":0.875,"dil2":0.925,"dil3":1.025,"dil4":0.975,"dil5":1.125,"dil6":1.075,"rots":[5,15,25,-5,-15,-25],"dils":[0.875,0.925,1.025,0.975,1.125,1.075],"loop_number":"NA","everTouched":null},{"id":"test","shape":"random","outlier_type":2,"choice":2,"outlierPosition":2,"success":true,"majorityOfMostRegularShapes":true,"rt":22099.79999999996,"rot1":15,"rot2":-15,"rot3":-25,"rot4":-5,"rot5":5,"rot6":25,"dil1":1.125,"dil2":0.925,"dil3":1.025,"dil4":0.875,"dil5":1.075,"dil6":0.975,"rots":[15,-15,-25,-5,5,25],"dils":[1.125,0.925,1.025,0.875,1.075,0.975],"loop_number":"NA","everTouched":null},{"id":"test","shape":"trapezoid","outlier_type":3,"choice":1,"outlierPosition":2,"success":false,"majorityOfMostRegularShapes":true,"rt":3079.1000000026543,"rot1":-15,"rot2":5,"rot3":25,"rot4":15,"rot5":-25,"rot6":-5,"dil1":1.125,"dil2":0.875,"dil3":1.025,"dil4":0.925,"dil5":1.075,"dil6":0.975,"rots":[-15,5,25,15,-25,-5],"dils":[1.125,0.875,1.025,0.925,1.075,0.975],"loop_number":"NA","everTouched":null},{"id":"test","shape":"rectangle","outlier_type":2,"choice":1,"outlierPosition":1,"success":true,"majorityOfMostRegularShapes":true,"rt":4198.700000000827,"rot1":-15,"rot2":25,"rot3":15,"rot4":5,"rot5":-5,"rot6":-25,"dil1":1.025,"dil2":1.125,"dil3":1.075,"dil4":0.975,"dil5":0.875,"dil6":0.925,"rots":[-15,25,15,5,-5,-25],"dils":[1.025,1.125,1.075,0.975,0.875,0.925],"loop_number":"NA","everTouched":null},{"id":"test","shape":"rightKite","outlier_type":0,"choice":1,"outlierPosition":1,"success":true,"majorityOfMostRegularShapes":true,"rt":19233.000000000175,"rot1":-5,"rot2":-15,"rot3":15,"rot4":25,"rot5":-25,"rot6":5,"dil1":0.975,"dil2":0.875,"dil3":0.925,"dil4":1.025,"dil5":1.125,"dil6":1.075,"rots":[-5,-15,15,25,-25,5],"dils":[0.975,0.875,0.925,1.025,1.125,1.075],"loop_number":"NA","everTouched":null},{"id":"test","shape":"isoTrapezoid","outlier_type":1,"choice":4,"outlierPosition":4,"success":true,"majorityOfMostRegularShapes":true,"rt":2709.100000000035,"rot1":-5,"rot2":15,"rot3":5,"rot4":-15,"rot5":25,"rot6":-25,"dil1":1.125,"dil2":0.875,"dil3":0.925,"dil4":1.075,"dil5":0.975,"dil6":1.025,"rots":[-5,15,5,-15,25,-25],"dils":[1.125,0.875,0.925,1.075,0.975,1.025],"loop_number":"NA","everTouched":null},{"id":"test","shape":"rustedHinge","outlier_type":0,"choice":3,"outlierPosition":4,"success":false,"majorityOfMostRegularShapes":true,"rt":25067.299999998795,"rot1":-5,"rot2":5,"rot3":25,"rot4":15,"rot5":-25,"rot6":-15,"dil1":1.075,"dil2":0.975,"dil3":0.875,"dil4":0.925,"dil5":1.025,"dil6":1.125,"rots":[-5,5,25,15,-25,-15],"dils":[1.075,0.975,0.875,0.925,1.025,1.125],"loop_number":"NA","everTouched":null},{"id":"test","shape":"losange","outlier_type":2,"choice":4,"outlierPosition":4,"success":true,"majorityOfMostRegularShapes":true,"rt":28389.400000000023,"rot1":15,"rot2":-15,"rot3":5,"rot4":25,"rot5":-5,"rot6":-25,"dil1":0.975,"dil2":1.075,"dil3":1.125,"dil4":1.025,"dil5":0.875,"dil6":0.925,"rots":[15,-15,5,25,-5,-25],"dils":[0.975,1.075,1.125,1.025,0.875,0.925],"loop_number":"NA","everTouched":null},{"id":"test","shape":"random","outlier_type":3,"choice":3,"outlierPosition":3,"success":true,"majorityOfMostRegularShapes":true,"rt":29393.599999999453,"rot1":-5,"rot2":5,"rot3":-25,"rot4":25,"rot5":-15,"rot6":15,"dil1":0.925,"dil2":1.025,"dil3":0.975,"dil4":1.125,"dil5":1.075,"dil6":0.875,"rots":[-5,5,-25,25,-15,15],"dils":[0.925,1.025,0.975,1.125,1.075,0.875],"loop_number":"NA","everTouched":null},{"id":"test","shape":"kite","outlier_type":0,"choice":2,"outlierPosition":1,"success":false,"majorityOfMostRegularShapes":true,"rt":2280.800000000396,"rot1":-5,"rot2":15,"rot3":-15,"rot4":-25,"rot5":25,"rot6":5,"dil1":1.025,"dil2":1.075,"dil3":0.875,"dil4":0.925,"dil5":0.975,"dil6":1.125,"rots":[-5,15,-15,-25,25,5],"dils":[1.025,1.075,0.875,0.925,0.975,1.125],"loop_number":"NA","everTouched":null},{"id":"test","shape":"isoTrapezoid","outlier_type":3,"choice":2,"outlierPosition":2,"success":true,"majorityOfMostRegularShapes":true,"rt":5145.300000000105,"rot1":25,"rot2":-15,"rot3":-5,"rot4":15,"rot5":5,"rot6":-25,"dil1":0.975,"dil2":0.925,"dil3":1.025,"dil4":1.125,"dil5":0.875,"dil6":1.075,"rots":[25,-15,-5,15,5,-25],"dils":[0.975,0.925,1.025,1.125,0.875,1.075],"loop_number":"NA","everTouched":null},{"id":"test","shape":"parallelogram","outlier_type":0,"choice":2,"outlierPosition":4,"success":false,"majorityOfMostRegularShapes":true,"rt":8451.800000002608,"rot1":25,"rot2":-25,"rot3":15,"rot4":-15,"rot5":5,"rot6":-5,"dil1":0.975,"dil2":1.025,"dil3":0.875,"dil4":1.125,"dil5":0.925,"dil6":1.075,"rots":[25,-25,15,-15,5,-5],"dils":[0.975,1.025,0.875,1.125,0.925,1.075],"loop_number":"NA","everTouched":null},{"id":"test","shape":"losange","outlier_type":3,"choice":4,"outlierPosition":0,"success":false,"majorityOfMostRegularShapes":true,"rt":5367.700000002515,"rot1":-5,"rot2":-15,"rot3":-25,"rot4":15,"rot5":25,"rot6":5,"dil1":1.075,"dil2":0.875,"dil3":0.925,"dil4":1.025,"dil5":0.975,"dil6":1.125,"rots":[-5,-15,-25,15,25,5],"dils":[1.075,0.875,0.925,1.025,0.975,1.125],"loop_number":"NA","everTouched":null},{"id":"test","shape":"trapezoid","outlier_type":2,"choice":2,"outlierPosition":0,"success":false,"majorityOfMostRegularShapes":true,"rt":15798.59999999823,"rot1":-5,"rot2":-15,"rot3":25,"rot4":5,"rot5":-25,"rot6":15,"dil1":1.075,"dil2":0.875,"dil3":1.025,"dil4":1.125,"dil5":0.925,"dil6":0.975,"rots":[-5,-15,25,5,-25,15],"dils":[1.075,0.875,1.025,1.125,0.925,0.975],"loop_number":"NA","everTouched":null},{"id":"test","shape":"parallelogram","outlier_type":3,"choice":1,"outlierPosition":1,"success":true,"majorityOfMostRegularShapes":true,"rt":26225.700000002747,"rot1":-5,"rot2":25,"rot3":-25,"rot4":15,"rot5":-15,"rot6":5,"dil1":0.925,"dil2":0.875,"dil3":1.075,"dil4":0.975,"dil5":1.125,"dil6":1.025,"rots":[-5,25,-25,15,-15,5],"dils":[0.925,0.875,1.075,0.975,1.125,1.025],"loop_number":"NA","everTouched":null},{"id":"test","shape":"rectangle","outlier_type":1,"choice":5,"outlierPosition":5,"success":true,"majorityOfMostRegularShapes":true,"rt":2976.699999999255,"rot1":25,"rot2":-15,"rot3":15,"rot4":-25,"rot5":5,"rot6":-5,"dil1":1.025,"dil2":1.125,"dil3":0.975,"dil4":1.075,"dil5":0.925,"dil6":0.875,"rots":[25,-15,15,-25,5,-5],"dils":[1.025,1.125,0.975,1.075,0.925,0.875],"loop_number":"NA","everTouched":null},{"id":"test","shape":"hinge","outlier_type":0,"choice":2,"outlierPosition":2,"success":true,"majorityOfMostRegularShapes":true,"rt":5872.800000001036,"rot1":-25,"rot2":15,"rot3":-15,"rot4":5,"rot5":25,"rot6":-5,"dil1":0.875,"dil2":0.975,"dil3":1.125,"dil4":1.025,"dil5":1.075,"dil6":0.925,"rots":[-25,15,-15,5,25,-5],"dils":[0.875,0.975,1.125,1.025,1.075,0.925],"loop_number":"NA","everTouched":null},{"id":"test","shape":"rightKite","outlier_type":2,"choice":2,"outlierPosition":2,"success":true,"majorityOfMostRegularShapes":true,"rt":5479.199999997916,"rot1":-15,"rot2":5,"rot3":15,"rot4":-25,"rot5":-5,"rot6":25,"dil1":0.975,"dil2":1.125,"dil3":1.025,"dil4":0.875,"dil5":0.925,"dil6":1.075,"rots":[-15,5,15,-25,-5,25],"dils":[0.975,1.125,1.025,0.875,0.925,1.075],"loop_number":"NA","everTouched":null},{"id":"test","shape":"rectangle","outlier_type":3,"choice":5,"outlierPosition":5,"success":true,"majorityOfMostRegularShapes":true,"rt":2844.9000000000233,"rot1":-15,"rot2":-5,"rot3":15,"rot4":-25,"rot5":25,"rot6":5,"dil1":1.075,"dil2":0.925,"dil3":1.025,"dil4":1.125,"dil5":0.875,"dil6":0.975,"rots":[-15,-5,15,-25,25,5],"dils":[1.075,0.925,1.025,1.125,0.875,0.975],"loop_number":"NA","everTouched":null},{"id":"test","shape":"isoTrapezoid","outlier_type":2,"choice":2,"outlierPosition":2,"success":true,"majorityOfMostRegularShapes":true,"rt":4123.399999996764,"rot1":-15,"rot2":5,"rot3":-5,"rot4":25,"rot5":15,"rot6":-25,"dil1":1.025,"dil2":1.125,"dil3":0.875,"dil4":0.975,"dil5":0.925,"dil6":1.075,"rots":[-15,5,-5,25,15,-25],"dils":[1.025,1.125,0.875,0.975,0.925,1.075],"loop_number":"NA","everTouched":null},{"id":"test","shape":"rightKite","outlier_type":3,"choice":4,"outlierPosition":3,"success":false,"majorityOfMostRegularShapes":true,"rt":9595.799999999115,"rot1":25,"rot2":-5,"rot3":15,"rot4":5,"rot5":-25,"rot6":-15,"dil1":1.075,"dil2":1.125,"dil3":0.975,"dil4":1.025,"dil5":0.875,"dil6":0.925,"rots":[25,-5,15,5,-25,-15],"dils":[1.075,1.125,0.975,1.025,0.875,0.925],"loop_number":"NA","everTouched":null},{"id":"test","shape":"losange","outlier_type":0,"choice":3,"outlierPosition":2,"success":false,"majorityOfMostRegularShapes":true,"rt":10731.10000000085,"rot1":-5,"rot2":-25,"rot3":5,"rot4":25,"rot5":15,"rot6":-15,"dil1":1.075,"dil2":1.125,"dil3":0.975,"dil4":0.925,"dil5":0.875,"dil6":1.025,"rots":[-5,-25,5,25,15,-15],"dils":[1.075,1.125,0.975,0.925,0.875,1.025],"loop_number":"NA","everTouched":null},{"id":"test","shape":"hinge","outlier_type":1,"choice":1,"outlierPosition":1,"success":true,"majorityOfMostRegularShapes":true,"rt":5419.5,"rot1":-25,"rot2":-15,"rot3":25,"rot4":5,"rot5":15,"rot6":-5,"dil1":1.075,"dil2":0.875,"dil3":1.125,"dil4":0.925,"dil5":0.975,"dil6":1.025,"rots":[-25,-15,25,5,15,-5],"dils":[1.075,0.875,1.125,0.925,0.975,1.025],"loop_number":"NA","everTouched":null},{"id":"test","shape":"rectangle","outlier_type":0,"choice":0,"outlierPosition":0,"success":true,"majorityOfMostRegularShapes":true,"rt":2734.599999999744,"rot1":25,"rot2":15,"rot3":-15,"rot4":-5,"rot5":5,"rot6":-25,"dil1":0.875,"dil2":0.975,"dil3":1.025,"dil4":0.925,"dil5":1.125,"dil6":1.075,"rots":[25,15,-15,-5,5,-25],"dils":[0.875,0.975,1.025,0.925,1.125,1.075],"loop_number":"NA","everTouched":null},{"id":"test","shape":"kite","outlier_type":2,"choice":1,"outlierPosition":2,"success":false,"majorityOfMostRegularShapes":true,"rt":8090.199999998789,"rot1":-15,"rot2":-25,"rot3":25,"rot4":-5,"rot5":15,"rot6":5,"dil1":1.125,"dil2":0.875,"dil3":1.025,"dil4":0.975,"dil5":0.925,"dil6":1.075,"rots":[-15,-25,25,-5,15,5],"dils":[1.125,0.875,1.025,0.975,0.925,1.075],"loop_number":"NA","everTouched":null},{"id":"test","shape":"kite","outlier_type":3,"choice":4,"outlierPosition":4,"success":true,"majorityOfMostRegularShapes":true,"rt":9365.79999999958,"rot1":-15,"rot2":5,"rot3":25,"rot4":15,"rot5":-25,"rot6":-5,"dil1":0.925,"dil2":0.975,"dil3":1.075,"dil4":1.125,"dil5":1.025,"dil6":0.875,"rots":[-15,5,25,15,-25,-5],"dils":[0.925,0.975,1.075,1.125,1.025,0.875],"loop_number":"NA","everTouched":null},{"id":"test","shape":"losange","outlier_type":1,"choice":0,"outlierPosition":0,"success":true,"majorityOfMostRegularShapes":true,"rt":10257.799999999406,"rot1":-5,"rot2":-25,"rot3":25,"rot4":15,"rot5":-15,"rot6":5,"dil1":1.125,"dil2":0.875,"dil3":1.075,"dil4":0.975,"dil5":1.025,"dil6":0.925,"rots":[-5,-25,25,15,-15,5],"dils":[1.125,0.875,1.075,0.975,1.025,0.925],"loop_number":"NA","everTouched":null},{"id":"test","shape":"random","outlier_type":0,"choice":4,"outlierPosition":5,"success":false,"majorityOfMostRegularShapes":true,"rt":55121.29999999894,"rot1":-5,"rot2":-25,"rot3":-15,"rot4":15,"rot5":25,"rot6":5,"dil1":1.075,"dil2":0.875,"dil3":0.925,"dil4":1.125,"dil5":0.975,"dil6":1.025,"rots":[-5,-25,-15,15,25,5],"dils":[1.075,0.875,0.925,1.125,0.975,1.025],"loop_number":"NA","everTouched":null},{"id":"test","shape":"rustedHinge","outlier_type":2,"choice":4,"outlierPosition":4,"success":true,"majorityOfMostRegularShapes":true,"rt":20935.299999997253,"rot1":5,"rot2":-5,"rot3":-15,"rot4":25,"rot5":-25,"rot6":15,"dil1":1.075,"dil2":0.925,"dil3":0.875,"dil4":0.975,"dil5":1.125,"dil6":1.025,"rots":[5,-5,-15,25,-25,15],"dils":[1.075,0.925,0.875,0.975,1.125,1.025],"loop_number":"NA","everTouched":null},{"id":"test","shape":"hinge","outlier_type":3,"choice":3,"outlierPosition":0,"success":false,"majorityOfMostRegularShapes":true,"rt":25806.000000000582,"rot1":5,"rot2":-15,"rot3":25,"rot4":15,"rot5":-25,"rot6":-5,"dil1":0.925,"dil2":1.125,"dil3":1.025,"dil4":0.875,"dil5":1.075,"dil6":0.975,"rots":[5,-15,25,15,-25,-5],"dils":[0.925,1.125,1.025,0.875,1.075,0.975],"loop_number":"NA","everTouched":null},{"id":"test","shape":"trapezoid","outlier_type":1,"choice":5,"outlierPosition":5,"success":true,"majorityOfMostRegularShapes":true,"rt":7408.599999998813,"rot1":15,"rot2":-5,"rot3":-15,"rot4":-25,"rot5":25,"rot6":5,"dil1":1.075,"dil2":1.025,"dil3":1.125,"dil4":0.875,"dil5":0.925,"dil6":0.975,"rots":[15,-5,-15,-25,25,5],"dils":[1.075,1.025,1.125,0.875,0.925,0.975],"loop_number":"NA","everTouched":null},{"id":"test","shape":"parallelogram","outlier_type":2,"choice":3,"outlierPosition":3,"success":true,"majorityOfMostRegularShapes":true,"rt":9020.300000000163,"rot1":-5,"rot2":5,"rot3":-25,"rot4":15,"rot5":25,"rot6":-15,"dil1":0.875,"dil2":1.075,"dil3":0.925,"dil4":1.125,"dil5":1.025,"dil6":0.975,"rots":[-5,5,-25,15,25,-15],"dils":[0.875,1.075,0.925,1.125,1.025,0.975],"loop_number":"NA","everTouched":null},{"id":"test","shape":"kite","outlier_type":1,"choice":2,"outlierPosition":2,"success":true,"majorityOfMostRegularShapes":true,"rt":23380.300000000745,"rot1":25,"rot2":-15,"rot3":5,"rot4":15,"rot5":-5,"rot6":-25,"dil1":0.875,"dil2":0.925,"dil3":1.025,"dil4":0.975,"dil5":1.075,"dil6":1.125,"rots":[25,-15,5,15,-5,-25],"dils":[0.875,0.925,1.025,0.975,1.075,1.125],"loop_number":"NA","everTouched":null},{"id":"test","shape":"square","outlier_type":0,"choice":3,"outlierPosition":3,"success":true,"majorityOfMostRegularShapes":true,"rt":2815.1999999973923,"rot1":-15,"rot2":5,"rot3":25,"rot4":-25,"rot5":-5,"rot6":15,"dil1":0.875,"dil2":1.025,"dil3":0.975,"dil4":1.075,"dil5":1.125,"dil6":0.925,"rots":[-15,5,25,-25,-5,15],"dils":[0.875,1.025,0.975,1.075,1.125,0.925],"loop_number":"NA","everTouched":null},{"id":"test","shape":"parallelogram","outlier_type":1,"choice":5,"outlierPosition":5,"success":true,"majorityOfMostRegularShapes":true,"rt":3271.4000000014203,"rot1":-15,"rot2":5,"rot3":-25,"rot4":15,"rot5":-5,"rot6":25,"dil1":0.925,"dil2":1.125,"dil3":1.075,"dil4":0.975,"dil5":1.025,"dil6":0.875,"rots":[-15,5,-25,15,-5,25],"dils":[0.925,1.125,1.075,0.975,1.025,0.875],"loop_number":"NA","everTouched":null},{"id":"test","shape":"hinge","outlier_type":2,"choice":0,"outlierPosition":0,"success":true,"majorityOfMostRegularShapes":true,"rt":2823.7000000008848,"rot1":25,"rot2":-25,"rot3":-5,"rot4":15,"rot5":5,"rot6":-15,"dil1":1.075,"dil2":0.875,"dil3":0.975,"dil4":1.125,"dil5":0.925,"dil6":1.025,"rots":[25,-25,-5,15,5,-15],"dils":[1.075,0.875,0.975,1.125,0.925,1.025],"loop_number":"NA","everTouched":null},{"id":"test","shape":"square","outlier_type":3,"choice":3,"outlierPosition":3,"success":true,"majorityOfMostRegularShapes":true,"rt":2400.5999999971827,"rot1":5,"rot2":-15,"rot3":-25,"rot4":-5,"rot5":15,"rot6":25,"dil1":0.925,"dil2":1.025,"dil3":0.975,"dil4":0.875,"dil5":1.125,"dil6":1.075,"rots":[5,-15,-25,-5,15,25],"dils":[0.925,1.025,0.975,0.875,1.125,1.075],"loop_number":"NA","everTouched":null},{"id":"test","shape":"rightKite","outlier_type":1,"choice":5,"outlierPosition":5,"success":true,"majorityOfMostRegularShapes":true,"rt":4112.90000000014,"rot1":25,"rot2":-25,"rot3":5,"rot4":-15,"rot5":15,"rot6":-5,"dil1":0.925,"dil2":0.875,"dil3":0.975,"dil4":1.125,"dil5":1.025,"dil6":1.075,"rots":[25,-25,5,-15,15,-5],"dils":[0.925,0.875,0.975,1.125,1.025,1.075],"loop_number":"NA","everTouched":null},{"id":"test","shape":"isoTrapezoid","outlier_type":0,"choice":2,"outlierPosition":5,"success":false,"majorityOfMostRegularShapes":true,"rt":5646.300000000396,"rot1":-5,"rot2":-25,"rot3":25,"rot4":5,"rot5":15,"rot6":-15,"dil1":1.125,"dil2":1.025,"dil3":1.075,"dil4":0.875,"dil5":0.925,"dil6":0.975,"rots":[-5,-25,25,5,15,-15],"dils":[1.125,1.025,1.075,0.875,0.925,0.975],"loop_number":"NA","everTouched":null}],"desiredDistance":0.3,"trial_type":"oddball-grid","trial_index":3,"time_elapsed":695019,"internal_node_id":"0.0-3.0","ID":"wtc1en8xqx"},{"success":true,"trial_type":"fullscreen","trial_index":4,"time_elapsed":705268,"internal_node_id":"0.0-4.0","ID":"wtc1en8xqx"}]