"success","trial_type","trial_index","time_elapsed","internal_node_id","ID","rt","stimulus","button_pressed","button_pressed_text"
"true","fullscreen","0","10861","0.0-0.0","gne7x4xznm","","","",""
"","html-button-response","1","11942","0.0-1.0-0.0","gne7x4xznm","1064.1999999970722","<span class=stimul>o</span>","0","Correct"
"","html-button-response","2","12295","0.0-1.0-0.1","gne7x4xznm","350.59999999793945","<span class=stimul>i</span>","0","Correct"
"","html-button-response","3","12524","0.0-1.0-0.2","gne7x4xznm","226.99999999895226","<span class=stimul>bi</span>","0","Correct"
"","html-button-response","4","12808","0.0-1.0-0.3","gne7x4xznm","280.800000000454","<span class=stimul>ul</span>","0","Correct"
"","html-button-response","5","13130","0.0-1.0-0.4","gne7x4xznm","319.8999999985972","<span class=stimul>til</span>","0","Correct"
"","html-button-response","6","13524","0.0-1.0-0.5","gne7x4xznm","391.9999999998254","<span class=stimul>ja</span>","0","Correct"
"","html-button-response","7","13876","0.0-1.0-0.6","gne7x4xznm","349.6999999988475","<span class=stimul>ol</span>","0","Correct"
"","html-button-response","8","14272","0.0-1.0-0.7","gne7x4xznm","393.59999999942374","<span class=stimul>ata</span>","0","Correct"
"","html-button-response","9","14599","0.0-1.0-0.8","gne7x4xznm","324.49999999880674","<span class=stimul>dik</span>","0","Correct"
"","html-button-response","10","15017","0.0-1.0-0.9","gne7x4xznm","416.4000000018859","<span class=stimul>nar</span>","0","Correct"
"","html-button-response","11","15468","0.0-1.0-0.10","gne7x4xznm","448.70000000082655","<span class=stimul>vaf</span>","0","Correct"
"","html-button-response","12","16019","0.0-1.0-0.11","gne7x4xznm","548.5000000007858","<span class=stimul>zou</span>","0","Correct"
"","html-button-response","13","16702","0.0-1.0-0.12","gne7x4xznm","679.0999999975611","<span class=stimul>dul</span>","0","Correct"
"","html-button-response","14","17200","0.0-1.0-0.13","gne7x4xznm","495.30000000231666","<span class=stimul>lévo</span>","0","Correct"
"","html-button-response","15","17980","0.0-1.0-0.14","gne7x4xznm","776.2000000002445","<span class=stimul>tur</span>","0","Correct"
"","html-button-response","16","18342","0.0-1.0-0.15","gne7x4xznm","358.8999999992666","<span class=stimul>veur</span>","0","Correct"
"","html-button-response","17","18816","0.0-1.0-0.16","gne7x4xznm","471.399999998539","<span class=stimul>col</span>","0","Correct"
"","html-button-response","18","19325","0.0-1.0-0.17","gne7x4xznm","505.4999999993015","<span class=stimul>noil</span>","0","Correct"
"","html-button-response","19","19809","0.0-1.0-0.18","gne7x4xznm","480.40000000037253","<span class=stimul>opa</span>","0","Correct"
"","html-button-response","20","20243","0.0-1.0-0.19","gne7x4xznm","430.70000000079744","<span class=stimul>jal</span>","0","Correct"
"","html-button-response","21","20677","0.0-1.0-0.20","gne7x4xznm","430.69999999715947","<span class=stimul>neau</span>","0","Correct"
"","html-button-response","22","21112","0.0-1.0-0.21","gne7x4xznm","431.49999999877764","<span class=stimul>timé</span>","0","Correct"
"","html-button-response","23","21497","0.0-1.0-0.22","gne7x4xznm","381.40000000203145","<span class=stimul>cal</span>","0","Correct"
"","html-button-response","24","21882","0.0-1.0-0.23","gne7x4xznm","381.70000000172877","<span class=stimul>tibe</span>","0","Correct"
"","html-button-response","25","22122","0.0-1.0-0.24","gne7x4xznm","236.19999999937136","<span class=stimul>lupe</span>","0","Correct"
"","html-button-response","26","22762","0.0-1.0-0.25","gne7x4xznm","636.899999997695","<span class=stimul>pirde</span>","0","Correct"
"","html-button-response","27","23302","0.0-1.0-0.26","gne7x4xznm","536.4999999983411","<span class=stimul>gor</span>","0","Correct"
"","html-button-response","28","23760","0.0-1.0-0.27","gne7x4xznm","453.7000000018452","<span class=stimul>ablir</span>","0","Correct"
"","html-button-response","29","24309","0.0-1.0-0.28","gne7x4xznm","545.5000000001746","<span class=stimul>sar</span>","0","Correct"
"","html-button-response","30","24752","0.0-1.0-0.29","gne7x4xznm","439.40000000293367","<span class=stimul>vaipe</span>","0","Correct"
"","html-button-response","31","25572","0.0-1.0-0.30","gne7x4xznm","816.8000000005122","<span class=stimul>cifale</span>","0","Correct"
"","html-button-response","32","26153","0.0-1.0-0.31","gne7x4xznm","577.1000000022468","<span class=stimul>sapir</span>","0","Correct"
"","html-button-response","33","26670","0.0-1.0-0.32","gne7x4xznm","513.6999999995169","<span class=stimul>vro</span>","0","Correct"
"","html-button-response","34","27325","0.0-1.0-0.33","gne7x4xznm","651.9000000007509","<span class=stimul>rigne</span>","0","Correct"
"","html-button-response","35","27876","0.0-1.0-0.34","gne7x4xznm","547.6999999991676","<span class=stimul>rosan</span>","0","Correct"
"","html-button-response","36","28505","0.0-1.0-0.35","gne7x4xznm","626.4999999984866","<span class=stimul>aubre</span>","0","Correct"
"","html-button-response","37","29103","0.0-1.0-0.36","gne7x4xznm","594.199999999546","<span class=stimul>talpe</span>","0","Correct"
"","html-button-response","38","30321","0.0-1.0-0.37","gne7x4xznm","1214.5999999993364","<span class=stimul>gur</span>","0","Correct"
"","html-button-response","39","30896","0.0-1.0-0.38","gne7x4xznm","571.8999999990046","<span class=stimul>louré</span>","0","Correct"
"","html-button-response","40","31788","0.0-1.0-0.39","gne7x4xznm","888.6000000020431","<span class=stimul>ragife</span>","0","Correct"
"","html-button-response","41","32482","0.0-1.0-0.40","gne7x4xznm","690.8000000003085","<span class=stimul>noge</span>","0","Correct"
"","html-button-response","42","32989","0.0-1.0-0.41","gne7x4xznm","504.0000000008149","<span class=stimul>tope</span>","0","Correct"
"","html-button-response","43","33489","0.0-1.0-0.42","gne7x4xznm","496.3999999999942","<span class=stimul>uché</span>","0","Correct"
"","html-button-response","44","33994","0.0-1.0-0.43","gne7x4xznm","502.199999998993","<span class=stimul>truson</span>","0","Correct"
"","html-button-response","45","34486","0.0-1.0-0.44","gne7x4xznm","488.09999999866704","<span class=stimul>ranli</span>","0","Correct"
"","html-button-response","46","35642","0.0-1.0-0.45","gne7x4xznm","1152.9000000009546","<span class=stimul>tosir</span>","0","Correct"
"","html-button-response","47","36280","0.0-1.0-0.46","gne7x4xznm","634.0000000018335","<span class=stimul>poitade</span>","0","Correct"
"","html-button-response","48","36902","0.0-1.0-0.47","gne7x4xznm","619.3999999995867","<span class=stimul>ousir</span>","0","Correct"
"","html-button-response","49","37579","0.0-1.0-0.48","gne7x4xznm","673.5000000007858","<span class=stimul>bapre</span>","0","Correct"
"","html-button-response","50","38536","0.0-1.0-0.49","gne7x4xznm","952.6999999980035","<span class=stimul>gigne</span>","0","Correct"
"","html-button-response","51","41237","0.0-1.0-0.50","gne7x4xznm","2698.00000000032","<span class=stimul>gésin</span>","0","Correct"
"","html-button-response","52","42219","0.0-1.0-0.51","gne7x4xznm","977.9000000016822","<span class=stimul>kraulir</span>","0","Correct"
"","html-button-response","53","42962","0.0-1.0-0.52","gne7x4xznm","738.9000000002852","<span class=stimul>cibe</span>","0","Correct"
"","html-button-response","54","44162","0.0-1.0-0.53","gne7x4xznm","1197.599999999511","<span class=stimul>maipe</span>","0","Correct"
"","html-button-response","55","44916","0.0-1.0-0.54","gne7x4xznm","750.5999999993946","<span class=stimul>ligase</span>","0","Correct"
"","html-button-response","56","45804","0.0-1.0-0.55","gne7x4xznm","883.6000000010245","<span class=stimul>gofi</span>","0","Correct"
"","html-button-response","57","47535","0.0-1.0-0.56","gne7x4xznm","1726.8000000003667","<span class=stimul>cipre</span>","0","Correct"
"","html-button-response","58","48056","0.0-1.0-0.57","gne7x4xznm","508.20000000021537","<span class=stimul>tasin</span>","0","Correct"
"","html-button-response","59","48533","0.0-1.0-0.58","gne7x4xznm","473.9000000008673","<span class=stimul>cipé</span>","0","Correct"
"","html-button-response","60","49650","0.0-1.0-0.59","gne7x4xznm","1112.6000000003842","<span class=stimul>punse</span>","0","Correct"
"true","fullscreen","61","50654","0.0-2.0","gne7x4xznm","","","",""
"true","fullscreen","0","21313","0.0-0.0","ura7dlrv8g","","","",""
"","html-button-response","1","22380","0.0-1.0-0.0","ura7dlrv8g","1040.8000000024913","<span class=stimul>à</span>","0","Correct"
"","html-button-response","2","22735","0.0-1.0-0.1","ura7dlrv8g","349.6000000013737","<span class=stimul>où</span>","0","Correct"
"","html-button-response","3","22986","0.0-1.0-0.2","ura7dlrv8g","246.99999999938882","<span class=stimul>la</span>","0","Correct"
"","html-button-response","4","23356","0.0-1.0-0.3","ura7dlrv8g","366.6000000011991","<span class=stimul>au</span>","0","Correct"
"","html-button-response","5","23796","0.0-1.0-0.4","ura7dlrv8g","436.8999999969674","<span class=stimul>tu</span>","0","Correct"
"","html-button-response","6","24215","0.0-1.0-0.5","ura7dlrv8g","415.499999999156","<span class=stimul>un</span>","0","Correct"
"","html-button-response","7","24637","0.0-1.0-0.6","ura7dlrv8g","417.9999999978463","<span class=stimul>il</span>","0","Correct"
"","html-button-response","8","25050","0.0-1.0-0.7","ura7dlrv8g","409.79999999763095","<span class=stimul>été</span>","0","Correct"
"","html-button-response","9","25468","0.0-1.0-0.8","ura7dlrv8g","414.9000000033993","<span class=stimul>on</span>","0","Correct"
"","html-button-response","10","25878","0.0-1.0-0.9","ura7dlrv8g","406.5999999984342","<span class=stimul>mur</span>","0","Correct"
"","html-button-response","11","26316","0.0-1.0-0.10","ura7dlrv8g","433.60000000029686","<span class=stimul>ni</span>","0","Correct"
"","html-button-response","12","26743","0.0-1.0-0.11","ura7dlrv8g","424.10000000018044","<span class=stimul>sur</span>","0","Correct"
"","html-button-response","13","27232","0.0-1.0-0.12","ura7dlrv8g","484.599999999773","<span class=stimul>qui</span>","0","Correct"
"","html-button-response","14","27680","0.0-1.0-0.13","ura7dlrv8g","444.99999999970896","<span class=stimul>vélo</span>","0","Correct"
"","html-button-response","15","28125","0.0-1.0-0.14","ura7dlrv8g","441.00000000253203","<span class=stimul>par</span>","0","Correct"
"","html-button-response","16","28579","0.0-1.0-0.15","ura7dlrv8g","450.89999999981956","<span class=stimul>feu</span>","0","Correct"
"","html-button-response","17","29473","0.0-1.0-0.16","ura7dlrv8g","890.400000000227","<span class=stimul>ce</span>","0","Correct"
"","html-button-response","18","30123","0.0-1.0-0.17","ura7dlrv8g","646.3000000003376","<span class=stimul>peur</span>","0","Correct"
"","html-button-response","19","30424","0.0-1.0-0.18","ura7dlrv8g","296.59999999785214","<span class=stimul>ami</span>","0","Correct"
"","html-button-response","20","30896","0.0-1.0-0.19","ura7dlrv8g","469.199999999546","<span class=stimul>moto</span>","0","Correct"
"","html-button-response","21","31364","0.0-1.0-0.20","ura7dlrv8g","464.4000000007509","<span class=stimul>peau</span>","0","Correct"
"","html-button-response","22","31832","0.0-1.0-0.21","ura7dlrv8g","464.3999999971129","<span class=stimul>lune</span>","0","Correct"
"","html-button-response","23","32236","0.0-1.0-0.22","ura7dlrv8g","399.80000000286964","<span class=stimul>gare</span>","0","Correct"
"","html-button-response","24","32613","0.0-1.0-0.23","ura7dlrv8g","373.70000000009895","<span class=stimul>lire</span>","0","Correct"
"","html-button-response","25","32983","0.0-1.0-0.24","ura7dlrv8g","367.2000000005937","<span class=stimul>bon</span>","0","Correct"
"","html-button-response","26","33419","0.0-1.0-0.25","ura7dlrv8g","431.80000000211294","<span class=stimul>mardi</span>","0","Correct"
"","html-button-response","27","33838","0.0-1.0-0.26","ura7dlrv8g","415.8000000024913","<span class=stimul>col</span>","0","Correct"
"","html-button-response","28","34356","0.0-1.0-0.27","ura7dlrv8g","514.2999999989115","<span class=stimul>avril</span>","0","Correct"
"","html-button-response","29","34899","0.0-1.0-0.28","ura7dlrv8g","539.3999999978405","<span class=stimul>roi</span>","0","Correct"
"","html-button-response","30","35277","0.0-1.0-0.29","ura7dlrv8g","373.8999999986845","<span class=stimul>faire</span>","0","Correct"
"","html-button-response","31","35769","0.0-1.0-0.30","ura7dlrv8g","488.9000000002852","<span class=stimul>facile</span>","0","Correct"
"","html-button-response","32","36133","0.0-1.0-0.31","ura7dlrv8g","360.80000000220025","<span class=stimul>cheval</span>","0","Correct"
"","html-button-response","33","36528","0.0-1.0-0.32","ura7dlrv8g","391.2000000018452","<span class=stimul>vrai</span>","0","Correct"
"","html-button-response","34","36983","0.0-1.0-0.33","ura7dlrv8g","450.3000000004249","<span class=stimul>ligne</span>","0","Correct"
"","html-button-response","35","37308","0.0-1.0-0.34","ura7dlrv8g","320.1999999982945","<span class=stimul>porte</span>","0","Correct"
"","html-button-response","36","37769","0.0-1.0-0.35","ura7dlrv8g","457.300000001851","<span class=stimul>autre</span>","0","Correct"
"","html-button-response","37","38075","0.0-1.0-0.36","ura7dlrv8g","302.80000000129803","<span class=stimul>loup</span>","0","Correct"
"","html-button-response","38","38423","0.0-1.0-0.37","ura7dlrv8g","343.4999999990396","<span class=stimul>soir</span>","0","Correct"
"","html-button-response","39","38798","0.0-1.0-0.38","ura7dlrv8g","371.90000000191503","<span class=stimul>page</span>","0","Correct"
"","html-button-response","40","39275","0.0-1.0-0.39","ura7dlrv8g","472.99999999813735","<span class=stimul>raisin</span>","0","Correct"
"","html-button-response","41","39687","0.0-1.0-0.40","ura7dlrv8g","408.1000000005588","<span class=stimul>car</span>","0","Correct"
"","html-button-response","42","40173","0.0-1.0-0.41","ura7dlrv8g","482.2999999996682","<span class=stimul>sucre</span>","0","Correct"
"","html-button-response","43","40558","0.0-1.0-0.42","ura7dlrv8g","381.600000000617","<span class=stimul>chat</span>","0","Correct"
"","html-button-response","44","40936","0.0-1.0-0.43","ura7dlrv8g","374.7000000003027","<span class=stimul>matin</span>","0","Correct"
"","html-button-response","45","41292","0.0-1.0-0.44","ura7dlrv8g","352.39999999976135","<span class=stimul>trésor</span>","0","Correct"
"","html-button-response","46","41742","0.0-1.0-0.45","ura7dlrv8g","446.19999999849824","<span class=stimul>soixante</span>","0","Correct"
"","html-button-response","47","42477","0.0-1.0-0.46","ura7dlrv8g","730.7000000000698","<span class=stimul>lundi</span>","0","Correct"
"","html-button-response","48","43206","0.0-1.0-0.47","ura7dlrv8g","723.60000000117","<span class=stimul>rose</span>","0","Correct"
"","html-button-response","49","43716","0.0-1.0-0.48","ura7dlrv8g","506.600000000617","<span class=stimul>visage</span>","0","Correct"
"","html-button-response","50","44414","0.0-1.0-0.49","ura7dlrv8g","694.5999999988999","<span class=stimul>six</span>","0","Correct"
"","html-button-response","51","45778","0.0-1.0-0.50","ura7dlrv8g","1359.7999999983585","<span class=stimul>ciseau</span>","0","Correct"
"","html-button-response","52","46295","0.0-1.0-0.51","ura7dlrv8g","513.2999999987078","<span class=stimul>août</span>","0","Correct"
"","html-button-response","53","47250","0.0-1.0-0.52","ura7dlrv8g","951.7000000014377","<span class=stimul>pays</span>","0","Correct"
"","html-button-response","54","47473","0.0-1.0-0.53","ura7dlrv8g","219.4000000017695","<span class=stimul>balai</span>","0","Correct"
"","html-button-response","55","47793","0.0-1.0-0.54","ura7dlrv8g","316.2000000011176","<span class=stimul>fille</span>","0","Correct"
"","html-button-response","56","48219","0.0-1.0-0.55","ura7dlrv8g","422.59999999805586","<span class=stimul>sept</span>","0","Correct"
"","html-button-response","57","48479","0.0-1.0-0.56","ura7dlrv8g","257.29999999748543","<span class=stimul>lourd</span>","0","Correct"
"","html-button-response","58","48620","0.0-1.0-0.57","ura7dlrv8g","137.60000000183936","<span class=stimul>femme</span>","0","Correct"
"","html-button-response","59","49068","0.0-1.0-0.58","ura7dlrv8g","444.29999999920256","<span class=stimul>garage</span>","0","Correct"
"","html-button-response","60","49339","0.0-1.0-0.59","ura7dlrv8g","267.80000000144355","<span class=stimul>hibou</span>","0","Correct"
"true","fullscreen","61","50342","0.0-2.0","ura7dlrv8g","","","",""
"true","fullscreen","0","69364","0.0-0.0","8mrbgdljhw","","","",""
"","html-button-response","1","70218","0.0-1.0-0.0","8mrbgdljhw","832.9999999987194","<span class=stimul>o</span>","0","Correct"
"","html-button-response","2","70627","0.0-1.0-0.1","8mrbgdljhw","406.1999999976251","<span class=stimul>i</span>","0","Correct"
"","html-button-response","3","70852","0.0-1.0-0.2","8mrbgdljhw","222.50000000349246","<span class=stimul>bi</span>","0","Correct"
"","html-button-response","4","71270","0.0-1.0-0.3","8mrbgdljhw","414.7999999986496","<span class=stimul>ul</span>","0","Correct"
"","html-button-response","5","71513","0.0-1.0-0.4","8mrbgdljhw","240.90000000433065","<span class=stimul>til</span>","0","Correct"
"","html-button-response","6","71800","0.0-1.0-0.5","8mrbgdljhw","284.1000000044005","<span class=stimul>ja</span>","0","Correct"
"","html-button-response","7","72075","0.0-1.0-0.6","8mrbgdljhw","273.00000000104774","<span class=stimul>ol</span>","0","Correct"
"","html-button-response","8","72366","0.0-1.0-0.7","8mrbgdljhw","289.49999999895226","<span class=stimul>ata</span>","0","Correct"
"","html-button-response","9","72827","0.0-1.0-0.8","8mrbgdljhw","458.0999999961932","<span class=stimul>dik</span>","0","Correct"
"","html-button-response","10","73100","0.0-1.0-0.9","8mrbgdljhw","271.0000000006403","<span class=stimul>nar</span>","0","Correct"
"","html-button-response","11","73379","0.0-1.0-0.10","8mrbgdljhw","276.4999999999418","<span class=stimul>vaf</span>","0","Correct"
"","html-button-response","12","73630","0.0-1.0-0.11","8mrbgdljhw","249.10000000090804","<span class=stimul>zou</span>","0","Correct"
"","html-button-response","13","74197","0.0-1.0-0.12","8mrbgdljhw","564.8000000001048","<span class=stimul>dul</span>","0","Correct"
"","html-button-response","14","74577","0.0-1.0-0.13","8mrbgdljhw","377.00000000040745","<span class=stimul>lévo</span>","0","Correct"
"","html-button-response","15","74972","0.0-1.0-0.14","8mrbgdljhw","391.5999999953783","<span class=stimul>tur</span>","0","Correct"
"","html-button-response","16","75464","0.0-1.0-0.15","8mrbgdljhw","488.89999999664724","<span class=stimul>veur</span>","0","Correct"
"","html-button-response","17","75858","0.0-1.0-0.16","8mrbgdljhw","390.79999999376014","<span class=stimul>col</span>","0","Correct"
"","html-button-response","18","76155","0.0-1.0-0.17","8mrbgdljhw","292.7999999956228","<span class=stimul>noil</span>","0","Correct"
"","html-button-response","19","76574","0.0-1.0-0.18","8mrbgdljhw","415.4000000053202","<span class=stimul>opa</span>","0","Correct"
"","html-button-response","20","76967","0.0-1.0-0.19","8mrbgdljhw","389.7999999971944","<span class=stimul>jal</span>","0","Correct"
"","html-button-response","21","77360","0.0-1.0-0.20","8mrbgdljhw","389.6000000022468","<span class=stimul>neau</span>","0","Correct"
"","html-button-response","22","77650","0.0-1.0-0.21","8mrbgdljhw","286.3000000070315","<span class=stimul>timé</span>","0","Correct"
"","html-button-response","23","78131","0.0-1.0-0.22","8mrbgdljhw","478.00000000279397","<span class=stimul>cal</span>","0","Correct"
"","html-button-response","24","78543","0.0-1.0-0.23","8mrbgdljhw","407.8000000008615","<span class=stimul>tibe</span>","0","Correct"
"","html-button-response","25","78853","0.0-1.0-0.24","8mrbgdljhw","306.7000000010012","<span class=stimul>lupe</span>","0","Correct"
"","html-button-response","26","79117","0.0-1.0-0.25","8mrbgdljhw","260.90000000112923","<span class=stimul>pirde</span>","0","Correct"
"","html-button-response","27","79419","0.0-1.0-0.26","8mrbgdljhw","298.8000000041211","<span class=stimul>gor</span>","0","Correct"
"","html-button-response","28","79723","0.0-1.0-0.27","8mrbgdljhw","300.4000000000815","<span class=stimul>ablir</span>","0","Correct"
"","html-button-response","29","80192","0.0-1.0-0.28","8mrbgdljhw","465.7000000006519","<span class=stimul>sar</span>","0","Correct"
"","html-button-response","30","80463","0.0-1.0-0.29","8mrbgdljhw","266.9000000023516","<span class=stimul>vaipe</span>","0","Correct"
"","html-button-response","31","80842","0.0-1.0-0.30","8mrbgdljhw","375.89999999909196","<span class=stimul>cifale</span>","0","Correct"
"","html-button-response","32","81271","0.0-1.0-0.31","8mrbgdljhw","425.4000000000815","<span class=stimul>sapir</span>","0","Correct"
"","html-button-response","33","81653","0.0-1.0-0.32","8mrbgdljhw","378.7999999985914","<span class=stimul>vro</span>","0","Correct"
"","html-button-response","34","82053","0.0-1.0-0.33","8mrbgdljhw","395.5999999961932","<span class=stimul>rigne</span>","0","Correct"
"","html-button-response","35","82378","0.0-1.0-0.34","8mrbgdljhw","321.29999999597203","<span class=stimul>rosan</span>","0","Correct"
"","html-button-response","36","82887","0.0-1.0-0.35","8mrbgdljhw","505.8999999964726","<span class=stimul>aubre</span>","0","Correct"
"","html-button-response","37","83348","0.0-1.0-0.36","8mrbgdljhw","457.2000000043772","<span class=stimul>talpe</span>","0","Correct"
"","html-button-response","38","83930","0.0-1.0-0.37","8mrbgdljhw","578.6999999982072","<span class=stimul>gur</span>","0","Correct"
"","html-button-response","39","84670","0.0-1.0-0.38","8mrbgdljhw","736.5999999965425","<span class=stimul>louré</span>","0","Correct"
"","html-button-response","40","85055","0.0-1.0-0.39","8mrbgdljhw","381.2999999936437","<span class=stimul>ragife</span>","0","Correct"
"","html-button-response","41","85304","0.0-1.0-0.40","8mrbgdljhw","245.60000000201399","<span class=stimul>noge</span>","0","Correct"
"","html-button-response","42","85925","0.0-1.0-0.41","8mrbgdljhw","617.4000000028173","<span class=stimul>tope</span>","0","Correct"
"","html-button-response","43","86516","0.0-1.0-0.42","8mrbgdljhw","587.3999999967054","<span class=stimul>uché</span>","0","Correct"
"","html-button-response","44","87002","0.0-1.0-0.43","8mrbgdljhw","482.40000000078","<span class=stimul>truson</span>","0","Correct"
"","html-button-response","45","87281","0.0-1.0-0.44","8mrbgdljhw","275.60000000084983","<span class=stimul>ranli</span>","0","Correct"
"","html-button-response","46","87577","0.0-1.0-0.45","8mrbgdljhw","292.3999999984517","<span class=stimul>tosir</span>","0","Correct"
"","html-button-response","47","88085","0.0-1.0-0.46","8mrbgdljhw","504.0999999982887","<span class=stimul>poitade</span>","0","Correct"
"","html-button-response","48","88487","0.0-1.0-0.47","8mrbgdljhw","398.8000000026659","<span class=stimul>ousir</span>","0","Correct"
"","html-button-response","49","88757","0.0-1.0-0.48","8mrbgdljhw","267.1000000045751","<span class=stimul>bapre</span>","0","Correct"
"","html-button-response","50","89256","0.0-1.0-0.49","8mrbgdljhw","494.29999999847496","<span class=stimul>gigne</span>","0","Correct"
"","html-button-response","51","89741","0.0-1.0-0.50","8mrbgdljhw","482.10000000108266","<span class=stimul>gésin</span>","0","Correct"
"","html-button-response","52","90118","0.0-1.0-0.51","8mrbgdljhw","372.799999997369","<span class=stimul>kraulir</span>","0","Correct"
"","html-button-response","53","90422","0.0-1.0-0.52","8mrbgdljhw","300.600000002305","<span class=stimul>cibe</span>","0","Correct"
"","html-button-response","54","90642","0.0-1.0-0.53","8mrbgdljhw","216.8999999994412","<span class=stimul>maipe</span>","0","Correct"
"","html-button-response","55","90824","0.0-1.0-0.54","8mrbgdljhw","178.2999999995809","<span class=stimul>ligase</span>","0","Correct"
"","html-button-response","56","91088","0.0-1.0-0.55","8mrbgdljhw","260.90000000112923","<span class=stimul>gofi</span>","0","Correct"
"","html-button-response","57","91395","0.0-1.0-0.56","8mrbgdljhw","303.50000000180444","<span class=stimul>cipre</span>","0","Correct"
"","html-button-response","58","91758","0.0-1.0-0.57","8mrbgdljhw","359.79999999835854","<span class=stimul>tasin</span>","0","Correct"
"","html-button-response","59","92204","0.0-1.0-0.58","8mrbgdljhw","442.6999999996042","<span class=stimul>cipé</span>","0","Correct"
"","html-button-response","60","92609","0.0-1.0-0.59","8mrbgdljhw","401.400000002468","<span class=stimul>punse</span>","0","Correct"
"true","fullscreen","61","93612","0.0-2.0","8mrbgdljhw","","","",""
"true","fullscreen","0","14234","0.0-0.0","0hnp5whqf3","","","",""
"","html-button-response","1","15235","0.0-1.0-0.0","0hnp5whqf3","972.0000000015716","<span class=stimul>à</span>","0","Correct"
"","html-button-response","2","15580","0.0-1.0-0.1","0hnp5whqf3","340.5999999959022","<span class=stimul>où</span>","0","Correct"
"","html-button-response","3","15819","0.0-1.0-0.2","0hnp5whqf3","236.00000000442378","<span class=stimul>la</span>","0","Correct"
"","html-button-response","4","16040","0.0-1.0-0.3","0hnp5whqf3","218.0000000007567","<span class=stimul>au</span>","0","Correct"
"","html-button-response","5","16264","0.0-1.0-0.4","0hnp5whqf3","220.00000000116415","<span class=stimul>tu</span>","0","Correct"
"","html-button-response","6","16518","0.0-1.0-0.5","0hnp5whqf3","251.4000000010128","<span class=stimul>un</span>","0","Correct"
"","html-button-response","7","16774","0.0-1.0-0.6","0hnp5whqf3","252.39999999757856","<span class=stimul>il</span>","0","Correct"
"","html-button-response","8","17030","0.0-1.0-0.7","0hnp5whqf3","252.79999999474967","<span class=stimul>été</span>","0","Correct"
"","html-button-response","9","17293","0.0-1.0-0.8","0hnp5whqf3","259.5999999975902","<span class=stimul>on</span>","0","Correct"
"","html-button-response","10","17555","0.0-1.0-0.9","0hnp5whqf3","259.2000000004191","<span class=stimul>mur</span>","0","Correct"
"","html-button-response","11","17845","0.0-1.0-0.10","0hnp5whqf3","287.60000000329455","<span class=stimul>ni</span>","0","Correct"
"","html-button-response","12","18108","0.0-1.0-0.11","0hnp5whqf3","259.5000000001164","<span class=stimul>sur</span>","0","Correct"
"","html-button-response","13","18387","0.0-1.0-0.12","0hnp5whqf3","276.400000002468","<span class=stimul>qui</span>","0","Correct"
"","html-button-response","14","18684","0.0-1.0-0.13","0hnp5whqf3","293.7000000019907","<span class=stimul>vélo</span>","0","Correct"
"","html-button-response","15","18982","0.0-1.0-0.14","0hnp5whqf3","294.30000000138534","<span class=stimul>par</span>","0","Correct"
"","html-button-response","16","19287","0.0-1.0-0.15","0hnp5whqf3","302.5000000052387","<span class=stimul>feu</span>","0","Correct"
"","html-button-response","17","19704","0.0-1.0-0.16","0hnp5whqf3","412.70000000076834","<span class=stimul>ce</span>","0","Correct"
"","html-button-response","18","20003","0.0-1.0-0.17","0hnp5whqf3","296.19999999704305","<span class=stimul>peur</span>","0","Correct"
"","html-button-response","19","20396","0.0-1.0-0.18","0hnp5whqf3","389.6999999997206","<span class=stimul>ami</span>","0","Correct"
"","html-button-response","20","20691","0.0-1.0-0.19","0hnp5whqf3","291.1999999996624","<span class=stimul>moto</span>","0","Correct"
"","html-button-response","21","21120","0.0-1.0-0.20","0hnp5whqf3","426.39999999664724","<span class=stimul>peau</span>","0","Correct"
"","html-button-response","22","21507","0.0-1.0-0.21","0hnp5whqf3","383.9000000007218","<span class=stimul>lune</span>","0","Correct"
"","html-button-response","23","21879","0.0-1.0-0.22","0hnp5whqf3","368.60000000160653","<span class=stimul>gare</span>","0","Correct"
"","html-button-response","24","22265","0.0-1.0-0.23","0hnp5whqf3","381.7999999955646","<span class=stimul>lire</span>","0","Correct"
"","html-button-response","25","22786","0.0-1.0-0.24","0hnp5whqf3","517.8000000014435","<span class=stimul>bon</span>","0","Correct"
"","html-button-response","26","23161","0.0-1.0-0.25","0hnp5whqf3","371.50000000110595","<span class=stimul>mardi</span>","0","Correct"
"","html-button-response","27","23507","0.0-1.0-0.26","0hnp5whqf3","343.0000000007567","<span class=stimul>col</span>","0","Correct"
"","html-button-response","28","23844","0.0-1.0-0.27","0hnp5whqf3","332.8999999939697","<span class=stimul>avril</span>","0","Correct"
"","html-button-response","29","24231","0.0-1.0-0.28","0hnp5whqf3","383.0999999991036","<span class=stimul>roi</span>","0","Correct"
"","html-button-response","30","24757","0.0-1.0-0.29","0hnp5whqf3","522.6000000038766","<span class=stimul>faire</span>","0","Correct"
"","html-button-response","31","25135","0.0-1.0-0.30","0hnp5whqf3","374.79999999777647","<span class=stimul>facile</span>","0","Correct"
"","html-button-response","32","25613","0.0-1.0-0.31","0hnp5whqf3","474.6000000013737","<span class=stimul>cheval</span>","0","Correct"
"","html-button-response","33","26024","0.0-1.0-0.32","0hnp5whqf3","407.6999999961117","<span class=stimul>vrai</span>","0","Correct"
"","html-button-response","34","26410","0.0-1.0-0.33","0hnp5whqf3","382.7000000019325","<span class=stimul>ligne</span>","0","Correct"
"","html-button-response","35","26847","0.0-1.0-0.34","0hnp5whqf3","433.099999994738","<span class=stimul>porte</span>","0","Correct"
"","html-button-response","36","27102","0.0-1.0-0.35","0hnp5whqf3","251.4000000010128","<span class=stimul>autre</span>","0","Correct"
"","html-button-response","37","27472","0.0-1.0-0.36","0hnp5whqf3","366.6000000011991","<span class=stimul>loup</span>","0","Correct"
"","html-button-response","38","27825","0.0-1.0-0.37","0hnp5whqf3","350.10000000329455","<span class=stimul>soir</span>","0","Correct"
"","html-button-response","39","28163","0.0-1.0-0.38","0hnp5whqf3","334.39999999973224","<span class=stimul>page</span>","0","Correct"
"","html-button-response","40","28524","0.0-1.0-0.39","0hnp5whqf3","357.7000000004773","<span class=stimul>raisin</span>","0","Correct"
"","html-button-response","41","28895","0.0-1.0-0.40","0hnp5whqf3","367.40000000281725","<span class=stimul>car</span>","0","Correct"
"","html-button-response","42","29225","0.0-1.0-0.41","0hnp5whqf3","325.6000000037602","<span class=stimul>sucre</span>","0","Correct"
"","html-button-response","43","29595","0.0-1.0-0.42","0hnp5whqf3","366.39999999897555","<span class=stimul>chat</span>","0","Correct"
"","html-button-response","44","29939","0.0-1.0-0.43","0hnp5whqf3","340.7000000006519","<span class=stimul>matin</span>","0","Correct"
"","html-button-response","45","30400","0.0-1.0-0.44","0hnp5whqf3","457.09999999962747","<span class=stimul>trésor</span>","0","Correct"
"","html-button-response","46","30795","0.0-1.0-0.45","0hnp5whqf3","391.60000000265427","<span class=stimul>soixante</span>","0","Correct"
"","html-button-response","47","31215","0.0-1.0-0.46","0hnp5whqf3","416.2999999971362","<span class=stimul>lundi</span>","0","Correct"
"","html-button-response","48","31552","0.0-1.0-0.47","0hnp5whqf3","333.39999999589054","<span class=stimul>rose</span>","0","Correct"
"","html-button-response","49","31964","0.0-1.0-0.48","0hnp5whqf3","408.1999999980326","<span class=stimul>visage</span>","0","Correct"
"","html-button-response","50","32318","0.0-1.0-0.49","0hnp5whqf3","351.0999999998603","<span class=stimul>six</span>","0","Correct"
"","html-button-response","51","32893","0.0-1.0-0.50","0hnp5whqf3","571.1999999984982","<span class=stimul>ciseau</span>","0","Correct"
"","html-button-response","52","33090","0.0-1.0-0.51","0hnp5whqf3","193.59999999869615","<span class=stimul>août</span>","0","Correct"
"","html-button-response","53","33379","0.0-1.0-0.52","0hnp5whqf3","286.2999999997555","<span class=stimul>pays</span>","0","Correct"
"","html-button-response","54","33576","0.0-1.0-0.53","0hnp5whqf3","193.00000000657747","<span class=stimul>balai</span>","0","Correct"
"","html-button-response","55","33800","0.0-1.0-0.54","0hnp5whqf3","220.80000000278233","<span class=stimul>fille</span>","0","Correct"
"","html-button-response","56","34040","0.0-1.0-0.55","0hnp5whqf3","237.1999999959371","<span class=stimul>sept</span>","0","Correct"
"","html-button-response","57","34267","0.0-1.0-0.56","0hnp5whqf3","223.599999997532","<span class=stimul>lourd</span>","0","Correct"
"","html-button-response","58","34685","0.0-1.0-0.57","0hnp5whqf3","414.0999999945052","<span class=stimul>femme</span>","0","Correct"
"","html-button-response","59","34843","0.0-1.0-0.58","0hnp5whqf3","155.39999999600695","<span class=stimul>garage</span>","0","Correct"
"","html-button-response","60","35031","0.0-1.0-0.59","0hnp5whqf3","184.1000000058557","<span class=stimul>hibou</span>","0","Correct"
"true","fullscreen","61","36035","0.0-2.0","0hnp5whqf3","","","",""
"true","fullscreen","0","7951","0.0-0.0","jtq5fea6w4","","","",""
"","html-button-response","1","8747","0.0-1.0-0.0","jtq5fea6w4","782.3999999964144","<span class=stimul>o</span>","0","Correct"
"","html-button-response","2","9242","0.0-1.0-0.1","jtq5fea6w4","489.6000000007916","<span class=stimul>i</span>","0","Correct"
"","html-button-response","3","9743","0.0-1.0-0.2","jtq5fea6w4","497.80000000464497","<span class=stimul>bi</span>","0","Correct"
"","html-button-response","4","10918","0.0-1.0-0.3","jtq5fea6w4","1171.3999999992666","<span class=stimul>ul</span>","0","Correct"
"","html-button-response","5","11380","0.0-1.0-0.4","jtq5fea6w4","458.4000000031665","<span class=stimul>til</span>","0","Correct"
"","html-button-response","6","11941","0.0-1.0-0.5","jtq5fea6w4","556.8000000057509","<span class=stimul>ja</span>","0","Correct"
"","html-button-response","7","12525","0.0-1.0-0.6","jtq5fea6w4","580.0000000017462","<span class=stimul>ol</span>","0","Correct"
"","html-button-response","8","13149","0.0-1.0-0.7","jtq5fea6w4","620.6999999994878","<span class=stimul>ata</span>","0","Correct"
"","html-button-response","9","13807","0.0-1.0-0.8","jtq5fea6w4","654.3999999994412","<span class=stimul>dik</span>","0","Correct"
"","html-button-response","10","14455","0.0-1.0-0.9","jtq5fea6w4","644.6000000069034","<span class=stimul>nar</span>","0","Correct"
"","html-button-response","11","15219","0.0-1.0-0.10","jtq5fea6w4","760.3999999992084","<span class=stimul>vaf</span>","0","Correct"
"","html-button-response","12","15934","0.0-1.0-0.11","jtq5fea6w4","711.699999999837","<span class=stimul>zou</span>","0","Correct"
"","html-button-response","13","16585","0.0-1.0-0.12","jtq5fea6w4","647.6000000038766","<span class=stimul>dul</span>","0","Correct"
"","html-button-response","14","17236","0.0-1.0-0.13","jtq5fea6w4","646.4999999952852","<span class=stimul>lévo</span>","0","Correct"
"","html-button-response","15","18060","0.0-1.0-0.14","jtq5fea6w4","820.2999999994063","<span class=stimul>tur</span>","0","Correct"
"","html-button-response","16","18664","0.0-1.0-0.15","jtq5fea6w4","601.1999999973341","<span class=stimul>veur</span>","0","Correct"
"","html-button-response","17","19274","0.0-1.0-0.16","jtq5fea6w4","606.2000000019907","<span class=stimul>col</span>","0","Correct"
"","html-button-response","18","19965","0.0-1.0-0.17","jtq5fea6w4","686.9000000006054","<span class=stimul>noil</span>","0","Correct"
"","html-button-response","19","20607","0.0-1.0-0.18","jtq5fea6w4","638.6000000056811","<span class=stimul>opa</span>","0","Correct"
"","html-button-response","20","21207","0.0-1.0-0.19","jtq5fea6w4","596.2999999974272","<span class=stimul>jal</span>","0","Correct"
"","html-button-response","21","21767","0.0-1.0-0.20","jtq5fea6w4","557.1000000054482","<span class=stimul>neau</span>","0","Correct"
"","html-button-response","22","22360","0.0-1.0-0.21","jtq5fea6w4","588.7999999977183","<span class=stimul>timé</span>","0","Correct"
"","html-button-response","23","22943","0.0-1.0-0.22","jtq5fea6w4","579.7999999995227","<span class=stimul>cal</span>","0","Correct"
"","html-button-response","24","23595","0.0-1.0-0.23","jtq5fea6w4","648.1999999959953","<span class=stimul>tibe</span>","0","Correct"
"","html-button-response","25","24350","0.0-1.0-0.24","jtq5fea6w4","751.9000000029337","<span class=stimul>lupe</span>","0","Correct"
"","html-button-response","26","24943","0.0-1.0-0.25","jtq5fea6w4","589.2000000021653","<span class=stimul>pirde</span>","0","Correct"
"","html-button-response","27","25569","0.0-1.0-0.26","jtq5fea6w4","622.1999999979744","<span class=stimul>gor</span>","0","Correct"
"","html-button-response","28","26865","0.0-1.0-0.27","jtq5fea6w4","1292.9000000003725","<span class=stimul>ablir</span>","0","Correct"
"","html-button-response","29","27424","0.0-1.0-0.28","jtq5fea6w4","555.2999999999884","<span class=stimul>sar</span>","0","Correct"
"","html-button-response","30","28041","0.0-1.0-0.29","jtq5fea6w4","613.1999999997788","<span class=stimul>vaipe</span>","0","Correct"
"","html-button-response","31","28673","0.0-1.0-0.30","jtq5fea6w4","628.7999999985914","<span class=stimul>cifale</span>","0","Correct"
"","html-button-response","32","29281","0.0-1.0-0.31","jtq5fea6w4","604.3999999965308","<span class=stimul>sapir</span>","0","Correct"
"","html-button-response","33","29951","0.0-1.0-0.32","jtq5fea6w4","665.8000000024913","<span class=stimul>vro</span>","0","Correct"
"","html-button-response","34","30573","0.0-1.0-0.33","jtq5fea6w4","615.9000000043306","<span class=stimul>rigne</span>","0","Correct"
"","html-button-response","35","31158","0.0-1.0-0.34","jtq5fea6w4","581.5999999977066","<span class=stimul>rosan</span>","0","Correct"
"","html-button-response","36","31930","0.0-1.0-0.35","jtq5fea6w4","768.6000000030617","<span class=stimul>aubre</span>","0","Correct"
"","html-button-response","37","32648","0.0-1.0-0.36","jtq5fea6w4","713.900000002468","<span class=stimul>talpe</span>","0","Correct"
"","html-button-response","38","33421","0.0-1.0-0.37","jtq5fea6w4","769.5000000021537","<span class=stimul>gur</span>","0","Correct"
"","html-button-response","39","34039","0.0-1.0-0.38","jtq5fea6w4","613.8999999966472","<span class=stimul>louré</span>","0","Correct"
"","html-button-response","40","34688","0.0-1.0-0.39","jtq5fea6w4","646.3000000003376","<span class=stimul>ragife</span>","0","Correct"
"","html-button-response","41","35544","0.0-1.0-0.40","jtq5fea6w4","851.4999999970314","<span class=stimul>noge</span>","0","Correct"
"","html-button-response","42","38277","0.0-1.0-0.41","jtq5fea6w4","2729.5000000012806","<span class=stimul>tope</span>","0","Correct"
"","html-button-response","43","39618","0.0-1.0-0.42","jtq5fea6w4","1337.7000000036787","<span class=stimul>uché</span>","0","Correct"
"","html-button-response","44","40188","0.0-1.0-0.43","jtq5fea6w4","566.4000000033411","<span class=stimul>truson</span>","0","Correct"
"","html-button-response","45","40819","0.0-1.0-0.44","jtq5fea6w4","626.5999999959604","<span class=stimul>ranli</span>","0","Correct"
"","html-button-response","46","41427","0.0-1.0-0.45","jtq5fea6w4","604.4000000038068","<span class=stimul>tosir</span>","0","Correct"
"","html-button-response","47","42225","0.0-1.0-0.46","jtq5fea6w4","794.6999999985565","<span class=stimul>poitade</span>","0","Correct"
"","html-button-response","48","42868","0.0-1.0-0.47","jtq5fea6w4","638.8000000006286","<span class=stimul>ousir</span>","0","Correct"
"","html-button-response","49","43699","0.0-1.0-0.48","jtq5fea6w4","827.7000000016415","<span class=stimul>bapre</span>","0","Correct"
"","html-button-response","50","44512","0.0-1.0-0.49","jtq5fea6w4","809.5999999932246","<span class=stimul>gigne</span>","0","Correct"
"","html-button-response","51","46663","0.0-1.0-0.50","jtq5fea6w4","2147.100000001956","<span class=stimul>gésin</span>","0","Correct"
"","html-button-response","52","50014","0.0-1.0-0.51","jtq5fea6w4","3347.0999999990454","<span class=stimul>kraulir</span>","0","Correct"
"","html-button-response","53","51059","0.0-1.0-0.52","jtq5fea6w4","1040.099999998347","<span class=stimul>cibe</span>","0","Correct"
"","html-button-response","54","51627","0.0-1.0-0.53","jtq5fea6w4","563.9000000010128","<span class=stimul>maipe</span>","0","Correct"
"","html-button-response","55","52113","0.0-1.0-0.54","jtq5fea6w4","482.7000000004773","<span class=stimul>ligase</span>","0","Correct"
"","html-button-response","56","52713","0.0-1.0-0.55","jtq5fea6w4","596.399999994901","<span class=stimul>gofi</span>","0","Correct"
"","html-button-response","57","53197","0.0-1.0-0.56","jtq5fea6w4","480.4999999978463","<span class=stimul>cipre</span>","0","Correct"
"","html-button-response","58","53714","0.0-1.0-0.57","jtq5fea6w4","512.9999999990105","<span class=stimul>tasin</span>","0","Correct"
"","html-button-response","59","54190","0.0-1.0-0.58","jtq5fea6w4","473.4000000025844","<span class=stimul>cipé</span>","0","Correct"
"","html-button-response","60","54494","0.0-1.0-0.59","jtq5fea6w4","300.4000000000815","<span class=stimul>punse</span>","0","Correct"
"true","fullscreen","61","55497","0.0-2.0","jtq5fea6w4","","","",""
"true","fullscreen","0","2627","0.0-0.0","h1p2lo4m6b","","","",""
"","html-button-response","1","5545","0.0-1.0-0.0","h1p2lo4m6b","2891.199999998207","<span class=stimul>à</span>","0","Correct"
"","html-button-response","2","6282","0.0-1.0-0.1","h1p2lo4m6b","732.4999999982538","<span class=stimul>où</span>","0","Correct"
"","html-button-response","3","6900","0.0-1.0-0.2","h1p2lo4m6b","614.3000000010943","<span class=stimul>la</span>","0","Correct"
"","html-button-response","4","7575","0.0-1.0-0.3","h1p2lo4m6b","671.3000000017928","<span class=stimul>au</span>","0","Correct"
"","html-button-response","5","8006","0.0-1.0-0.4","h1p2lo4m6b","426.9999999960419","<span class=stimul>tu</span>","0","Correct"
"","html-button-response","6","8829","0.0-1.0-0.5","h1p2lo4m6b","820.1000000044587","<span class=stimul>un</span>","0","Correct"
"","html-button-response","7","9277","0.0-1.0-0.6","h1p2lo4m6b","444.4000000003143","<span class=stimul>il</span>","0","Correct"
"","html-button-response","8","9722","0.0-1.0-0.7","h1p2lo4m6b","441.899999997986","<span class=stimul>été</span>","0","Correct"
"","html-button-response","9","11007","0.0-1.0-0.8","h1p2lo4m6b","1281.3999999998487","<span class=stimul>on</span>","0","Correct"
"","html-button-response","10","11518","0.0-1.0-0.9","h1p2lo4m6b","507.10000000253785","<span class=stimul>mur</span>","0","Correct"
"","html-button-response","11","11995","0.0-1.0-0.10","h1p2lo4m6b","473.39999999530846","<span class=stimul>ni</span>","0","Correct"
"","html-button-response","12","12515","0.0-1.0-0.11","h1p2lo4m6b","516.300000002957","<span class=stimul>sur</span>","0","Correct"
"","html-button-response","13","13075","0.0-1.0-0.12","h1p2lo4m6b","557.0999999981723","<span class=stimul>qui</span>","0","Correct"
"","html-button-response","14","13554","0.0-1.0-0.13","h1p2lo4m6b","474.80000000359723","<span class=stimul>vélo</span>","0","Correct"
"","html-button-response","15","14066","0.0-1.0-0.14","h1p2lo4m6b","508.30000000132713","<span class=stimul>par</span>","0","Correct"
"","html-button-response","16","14551","0.0-1.0-0.15","h1p2lo4m6b","482.10000000108266","<span class=stimul>feu</span>","0","Correct"
"","html-button-response","17","15062","0.0-1.0-0.16","h1p2lo4m6b","507.29999999748543","<span class=stimul>ce</span>","0","Correct"
"","html-button-response","18","15558","0.0-1.0-0.17","h1p2lo4m6b","492.50000000029104","<span class=stimul>peur</span>","0","Correct"
"","html-button-response","19","16042","0.0-1.0-0.18","h1p2lo4m6b","480.4999999978463","<span class=stimul>ami</span>","0","Correct"
"","html-button-response","20","16554","0.0-1.0-0.19","h1p2lo4m6b","508.20000000385335","<span class=stimul>moto</span>","0","Correct"
"","html-button-response","21","17106","0.0-1.0-0.20","h1p2lo4m6b","548.6999999993714","<span class=stimul>peau</span>","0","Correct"
"","html-button-response","22","17697","0.0-1.0-0.21","h1p2lo4m6b","587.8999999986263","<span class=stimul>lune</span>","0","Correct"
"","html-button-response","23","18207","0.0-1.0-0.22","h1p2lo4m6b","506.5000000031432","<span class=stimul>gare</span>","0","Correct"
"","html-button-response","24","18761","0.0-1.0-0.23","h1p2lo4m6b","549.6000000057393","<span class=stimul>lire</span>","0","Correct"
"","html-button-response","25","19290","0.0-1.0-0.24","h1p2lo4m6b","525.6000000008498","<span class=stimul>bon</span>","0","Correct"
"","html-button-response","26","19811","0.0-1.0-0.25","h1p2lo4m6b","517.2999999995227","<span class=stimul>mardi</span>","0","Correct"
"","html-button-response","27","20746","0.0-1.0-0.26","h1p2lo4m6b","932.3000000003958","<span class=stimul>col</span>","0","Correct"
"","html-button-response","28","21580","0.0-1.0-0.27","h1p2lo4m6b","829.8999999969965","<span class=stimul>avril</span>","0","Correct"
"","html-button-response","29","22221","0.0-1.0-0.28","h1p2lo4m6b","637.3999999996158","<span class=stimul>roi</span>","0","Correct"
"","html-button-response","30","22717","0.0-1.0-0.29","h1p2lo4m6b","492.70000000251457","<span class=stimul>faire</span>","0","Correct"
"","html-button-response","31","23302","0.0-1.0-0.30","h1p2lo4m6b","581.6000000049826","<span class=stimul>facile</span>","0","Correct"
"","html-button-response","32","23945","0.0-1.0-0.31","h1p2lo4m6b","638.5999999984051","<span class=stimul>cheval</span>","0","Correct"
"","html-button-response","33","24555","0.0-1.0-0.32","h1p2lo4m6b","607.3000000033062","<span class=stimul>vrai</span>","0","Correct"
"","html-button-response","34","25216","0.0-1.0-0.33","h1p2lo4m6b","656.5999999947962","<span class=stimul>ligne</span>","0","Correct"
"","html-button-response","35","25782","0.0-1.0-0.34","h1p2lo4m6b","562.4000000025262","<span class=stimul>porte</span>","0","Correct"
"","html-button-response","36","26351","0.0-1.0-0.35","h1p2lo4m6b","565.6999999991967","<span class=stimul>autre</span>","0","Correct"
"","html-button-response","37","27075","0.0-1.0-0.36","h1p2lo4m6b","720.500000003085","<span class=stimul>loup</span>","0","Correct"
"","html-button-response","38","27634","0.0-1.0-0.37","h1p2lo4m6b","555.5999999996857","<span class=stimul>soir</span>","0","Correct"
"","html-button-response","39","28244","0.0-1.0-0.38","h1p2lo4m6b","605.5999999953201","<span class=stimul>page</span>","0","Correct"
"","html-button-response","40","28919","0.0-1.0-0.39","h1p2lo4m6b","671.3000000017928","<span class=stimul>raisin</span>","0","Correct"
"","html-button-response","41","29592","0.0-1.0-0.40","h1p2lo4m6b","669.6999999985565","<span class=stimul>car</span>","0","Correct"
"","html-button-response","42","30391","0.0-1.0-0.41","h1p2lo4m6b","794.7000000058324","<span class=stimul>sucre</span>","0","Correct"
"","html-button-response","43","31931","0.0-1.0-0.42","h1p2lo4m6b","1536.2999999997555","<span class=stimul>chat</span>","0","Correct"
"","html-button-response","44","33143","0.0-1.0-0.43","h1p2lo4m6b","1208.599999998114","<span class=stimul>matin</span>","0","Correct"
"","html-button-response","45","34981","0.0-1.0-0.44","h1p2lo4m6b","1833.60000000539","<span class=stimul>trésor</span>","0","Correct"
"","html-button-response","46","35491","0.0-1.0-0.45","h1p2lo4m6b","506.9999999977881","<span class=stimul>soixante</span>","0","Correct"
"","html-button-response","47","36056","0.0-1.0-0.46","h1p2lo4m6b","560.9000000040396","<span class=stimul>lundi</span>","0","Correct"
"","html-button-response","48","36682","0.0-1.0-0.47","h1p2lo4m6b","622.4999999976717","<span class=stimul>rose</span>","0","Correct"
"","html-button-response","49","37234","0.0-1.0-0.48","h1p2lo4m6b","548.9000000015949","<span class=stimul>visage</span>","0","Correct"
"","html-button-response","50","37816","0.0-1.0-0.49","h1p2lo4m6b","578.3000000010361","<span class=stimul>six</span>","0","Correct"
"","html-button-response","51","38444","0.0-1.0-0.50","h1p2lo4m6b","623.4000000040396","<span class=stimul>ciseau</span>","0","Correct"
"","html-button-response","52","39003","0.0-1.0-0.51","h1p2lo4m6b","555.899999999383","<span class=stimul>août</span>","0","Correct"
"","html-button-response","53","39561","0.0-1.0-0.52","h1p2lo4m6b","554.1999999986729","<span class=stimul>pays</span>","0","Correct"
"","html-button-response","54","40088","0.0-1.0-0.53","h1p2lo4m6b","522.8000000061002","<span class=stimul>balai</span>","0","Correct"
"","html-button-response","55","40633","0.0-1.0-0.54","h1p2lo4m6b","542.0999999987544","<span class=stimul>fille</span>","0","Correct"
"","html-button-response","56","41242","0.0-1.0-0.55","h1p2lo4m6b","605.7000000000698","<span class=stimul>sept</span>","0","Correct"
"","html-button-response","57","41786","0.0-1.0-0.56","h1p2lo4m6b","540.3000000005704","<span class=stimul>lourd</span>","0","Correct"
"","html-button-response","58","42371","0.0-1.0-0.57","h1p2lo4m6b","580.9000000008382","<span class=stimul>femme</span>","0","Correct"
"","html-button-response","59","42899","0.0-1.0-0.58","h1p2lo4m6b","524.7999999992317","<span class=stimul>garage</span>","0","Correct"
"","html-button-response","60","43507","0.0-1.0-0.59","h1p2lo4m6b","604.3999999965308","<span class=stimul>hibou</span>","0","Correct"
"true","fullscreen","61","44510","0.0-2.0","h1p2lo4m6b","","","",""
"true","fullscreen","0","12531","0.0-0.0","jrqlfcvgdq","","","",""
"","html-button-response","1","13321","0.0-1.0-0.0","jrqlfcvgdq","766.7000000001281","<span class=stimul>o</span>","0","Correct"
"","html-button-response","2","13762","0.0-1.0-0.1","jrqlfcvgdq","436.40000000596046","<span class=stimul>i</span>","0","Correct"
"","html-button-response","3","14174","0.0-1.0-0.2","jrqlfcvgdq","408.3000000027823","<span class=stimul>bi</span>","0","Correct"
"","html-button-response","4","14670","0.0-1.0-0.3","jrqlfcvgdq","492.5999999977648","<span class=stimul>ul</span>","0","Correct"
"","html-button-response","5","15096","0.0-1.0-0.4","jrqlfcvgdq","422.59999999805586","<span class=stimul>til</span>","0","Correct"
"","html-button-response","6","15530","0.0-1.0-0.5","jrqlfcvgdq","430.5999999996857","<span class=stimul>ja</span>","0","Correct"
"","html-button-response","7","16005","0.0-1.0-0.6","jrqlfcvgdq","471.7999999993481","<span class=stimul>ol</span>","0","Correct"
"","html-button-response","8","16381","0.0-1.0-0.7","jrqlfcvgdq","372.1999999979744","<span class=stimul>ata</span>","0","Correct"
"","html-button-response","9","16815","0.0-1.0-0.8","jrqlfcvgdq","430.5000000022119","<span class=stimul>dik</span>","0","Correct"
"","html-button-response","10","17339","0.0-1.0-0.9","jrqlfcvgdq","519.9999999967986","<span class=stimul>nar</span>","0","Correct"
"","html-button-response","11","17761","0.0-1.0-0.10","jrqlfcvgdq","418.29999999754364","<span class=stimul>vaf</span>","0","Correct"
"","html-button-response","12","18248","0.0-1.0-0.11","jrqlfcvgdq","483.8999999992666","<span class=stimul>zou</span>","0","Correct"
"","html-button-response","13","19003","0.0-1.0-0.12","jrqlfcvgdq","750.9999999965657","<span class=stimul>dul</span>","0","Correct"
"","html-button-response","14","19526","0.0-1.0-0.13","jrqlfcvgdq","519.8999999993248","<span class=stimul>lévo</span>","0","Correct"
"","html-button-response","15","20255","0.0-1.0-0.14","jrqlfcvgdq","725.5000000004657","<span class=stimul>tur</span>","0","Correct"
"","html-button-response","16","20787","0.0-1.0-0.15","jrqlfcvgdq","528.8999999975204","<span class=stimul>veur</span>","0","Correct"
"","html-button-response","17","21784","0.0-1.0-0.16","jrqlfcvgdq","993.6999999990803","<span class=stimul>col</span>","0","Correct"
"","html-button-response","18","22288","0.0-1.0-0.17","jrqlfcvgdq","499.1999999983818","<span class=stimul>noil</span>","0","Correct"
"","html-button-response","19","22783","0.0-1.0-0.18","jrqlfcvgdq","491.20000000402797","<span class=stimul>opa</span>","0","Correct"
"","html-button-response","20","23276","0.0-1.0-0.19","jrqlfcvgdq","489.40000000584405","<span class=stimul>jal</span>","0","Correct"
"","html-button-response","21","23797","0.0-1.0-0.20","jrqlfcvgdq","517.2999999995227","<span class=stimul>neau</span>","0","Correct"
"","html-button-response","22","24297","0.0-1.0-0.21","jrqlfcvgdq","496.59999999857973","<span class=stimul>timé</span>","0","Correct"
"","html-button-response","23","24773","0.0-1.0-0.22","jrqlfcvgdq","472.3000000012689","<span class=stimul>cal</span>","0","Correct"
"","html-button-response","24","25255","0.0-1.0-0.23","jrqlfcvgdq","478.7999999971362","<span class=stimul>tibe</span>","0","Correct"
"","html-button-response","25","26058","0.0-1.0-0.24","jrqlfcvgdq","798.2999999949243","<span class=stimul>lupe</span>","0","Correct"
"","html-button-response","26","27242","0.0-1.0-0.25","jrqlfcvgdq","1180.2999999999884","<span class=stimul>pirde</span>","0","Correct"
"","html-button-response","27","28061","0.0-1.0-0.26","jrqlfcvgdq","816.2999999985914","<span class=stimul>gor</span>","0","Correct"
"","html-button-response","28","29074","0.0-1.0-0.27","jrqlfcvgdq","1009.4000000026426","<span class=stimul>ablir</span>","0","Correct"
"","html-button-response","29","29613","0.0-1.0-0.28","jrqlfcvgdq","535.1000000009662","<span class=stimul>sar</span>","0","Correct"
"","html-button-response","30","30367","0.0-1.0-0.29","jrqlfcvgdq","749.7999999977765","<span class=stimul>vaipe</span>","0","Correct"
"","html-button-response","31","30948","0.0-1.0-0.30","jrqlfcvgdq","577.4000000019441","<span class=stimul>cifale</span>","0","Correct"
"","html-button-response","32","31519","0.0-1.0-0.31","jrqlfcvgdq","567.9999999993015","<span class=stimul>sapir</span>","0","Correct"
"","html-button-response","33","32090","0.0-1.0-0.32","jrqlfcvgdq","567.1999999976833","<span class=stimul>vro</span>","0","Correct"
"","html-button-response","34","32625","0.0-1.0-0.33","jrqlfcvgdq","530.6999999957043","<span class=stimul>rigne</span>","0","Correct"
"","html-button-response","35","33415","0.0-1.0-0.34","jrqlfcvgdq","787.0000000038999","<span class=stimul>rosan</span>","0","Correct"
"","html-button-response","36","34109","0.0-1.0-0.35","jrqlfcvgdq","689.8000000001048","<span class=stimul>aubre</span>","0","Correct"
"","html-button-response","37","34812","0.0-1.0-0.36","jrqlfcvgdq","699.2000000027474","<span class=stimul>talpe</span>","0","Correct"
"","html-button-response","38","35294","0.0-1.0-0.37","jrqlfcvgdq","478.49999999743886","<span class=stimul>gur</span>","0","Correct"
"","html-button-response","39","35883","0.0-1.0-0.38","jrqlfcvgdq","585.8000000007451","<span class=stimul>louré</span>","0","Correct"
"","html-button-response","40","36495","0.0-1.0-0.39","jrqlfcvgdq","608.0000000001746","<span class=stimul>ragife</span>","0","Correct"
"","html-button-response","41","37133","0.0-1.0-0.40","jrqlfcvgdq","634.4000000026426","<span class=stimul>noge</span>","0","Correct"
"","html-button-response","42","38047","0.0-1.0-0.41","jrqlfcvgdq","910.9000000025844","<span class=stimul>tope</span>","0","Correct"
"","html-button-response","43","38630","0.0-1.0-0.42","jrqlfcvgdq","578.6999999982072","<span class=stimul>uché</span>","0","Correct"
"","html-button-response","44","39241","0.0-1.0-0.43","jrqlfcvgdq","607.1000000010827","<span class=stimul>truson</span>","0","Correct"
"","html-button-response","45","39854","0.0-1.0-0.44","jrqlfcvgdq","610.1999999955297","<span class=stimul>ranli</span>","0","Correct"
"","html-button-response","46","40183","0.0-1.0-0.45","jrqlfcvgdq","324.9999999970896","<span class=stimul>tosir</span>","0","Correct"
"","html-button-response","47","42576","0.0-1.0-0.46","jrqlfcvgdq","2390.2000000016415","<span class=stimul>poitade</span>","0","Correct"
"","html-button-response","48","44408","0.0-1.0-0.47","jrqlfcvgdq","1827.4000000019441","<span class=stimul>ousir</span>","0","Correct"
"","html-button-response","49","45094","0.0-1.0-0.48","jrqlfcvgdq","682.0000000006985","<span class=stimul>bapre</span>","0","Correct"
"","html-button-response","50","45878","0.0-1.0-0.49","jrqlfcvgdq","781.3999999998487","<span class=stimul>gigne</span>","0","Correct"
"","html-button-response","51","47031","0.0-1.0-0.50","jrqlfcvgdq","1148.6000000004424","<span class=stimul>gésin</span>","0","Correct"
"","html-button-response","52","47841","0.0-1.0-0.51","jrqlfcvgdq","806.4000000013039","<span class=stimul>kraulir</span>","0","Correct"
"","html-button-response","53","48494","0.0-1.0-0.52","jrqlfcvgdq","650.099999998929","<span class=stimul>cibe</span>","0","Correct"
"","html-button-response","54","49091","0.0-1.0-0.53","jrqlfcvgdq","592.9000000032829","<span class=stimul>maipe</span>","0","Correct"
"","html-button-response","55","49737","0.0-1.0-0.54","jrqlfcvgdq","642.2999999995227","<span class=stimul>ligase</span>","0","Correct"
"","html-button-response","56","50783","0.0-1.0-0.55","jrqlfcvgdq","1042.200000003504","<span class=stimul>gofi</span>","0","Correct"
"","html-button-response","57","52294","0.0-1.0-0.56","jrqlfcvgdq","1507.7000000019325","<span class=stimul>cipre</span>","0","Correct"
"","html-button-response","58","53507","0.0-1.0-0.57","jrqlfcvgdq","1209.3999999997322","<span class=stimul>tasin</span>","0","Correct"
"","html-button-response","59","54314","0.0-1.0-0.58","jrqlfcvgdq","802.7000000001863","<span class=stimul>cipé</span>","0","Correct"
"","html-button-response","60","54715","0.0-1.0-0.59","jrqlfcvgdq","397.29999999690335","<span class=stimul>punse</span>","0","Correct"
"true","fullscreen","61","55718","0.0-2.0","jrqlfcvgdq","","","",""
"true","fullscreen","0","5418","0.0-0.0","on5ptksff6","","","",""
"","html-button-response","1","6410","0.0-1.0-0.0","on5ptksff6","974.3000000016764","<span class=stimul>à</span>","0","Correct"
"","html-button-response","2","6894","0.0-1.0-0.1","on5ptksff6","476.79999999672873","<span class=stimul>où</span>","0","Correct"
"","html-button-response","3","7321","0.0-1.0-0.2","on5ptksff6","422.90000000502914","<span class=stimul>la</span>","0","Correct"
"","html-button-response","4","7756","0.0-1.0-0.3","on5ptksff6","431.30000000383006","<span class=stimul>au</span>","0","Correct"
"","html-button-response","5","8148","0.0-1.0-0.4","on5ptksff6","388.89999999810243","<span class=stimul>tu</span>","0","Correct"
"","html-button-response","6","8556","0.0-1.0-0.5","on5ptksff6","403.99999999499414","<span class=stimul>un</span>","0","Correct"
"","html-button-response","7","9007","0.0-1.0-0.6","on5ptksff6","447.79999999445863","<span class=stimul>il</span>","0","Correct"
"","html-button-response","8","9449","0.0-1.0-0.7","on5ptksff6","438.5000000038417","<span class=stimul>été</span>","0","Correct"
"","html-button-response","9","9930","0.0-1.0-0.8","on5ptksff6","477.5000000008731","<span class=stimul>on</span>","0","Correct"
"","html-button-response","10","10430","0.0-1.0-0.9","on5ptksff6","496.2000000014086","<span class=stimul>mur</span>","0","Correct"
"","html-button-response","11","10922","0.0-1.0-0.10","on5ptksff6","488.79999999917345","<span class=stimul>ni</span>","0","Correct"
"","html-button-response","12","11374","0.0-1.0-0.11","on5ptksff6","447.8000000017346","<span class=stimul>sur</span>","0","Correct"
"","html-button-response","13","11873","0.0-1.0-0.12","on5ptksff6","496.10000000393484","<span class=stimul>qui</span>","0","Correct"
"","html-button-response","14","12373","0.0-1.0-0.13","on5ptksff6","496.3999999963562","<span class=stimul>vélo</span>","0","Correct"
"","html-button-response","15","12898","0.0-1.0-0.14","on5ptksff6","520.9000000031665","<span class=stimul>par</span>","0","Correct"
"","html-button-response","16","13432","0.0-1.0-0.15","on5ptksff6","530.7000000029802","<span class=stimul>feu</span>","0","Correct"
"","html-button-response","17","13905","0.0-1.0-0.16","on5ptksff6","468.99999999732245","<span class=stimul>ce</span>","0","Correct"
"","html-button-response","18","14642","0.0-1.0-0.17","on5ptksff6","733.5999999995693","<span class=stimul>peur</span>","0","Correct"
"","html-button-response","19","15223","0.0-1.0-0.18","on5ptksff6","577.2999999971944","<span class=stimul>ami</span>","0","Correct"
"","html-button-response","20","15707","0.0-1.0-0.19","on5ptksff6","480.199999998149","<span class=stimul>moto</span>","0","Correct"
"","html-button-response","21","16310","0.0-1.0-0.20","on5ptksff6","600.2000000007683","<span class=stimul>peau</span>","0","Correct"
"","html-button-response","22","16794","0.0-1.0-0.21","on5ptksff6","480.199999998149","<span class=stimul>lune</span>","0","Correct"
"","html-button-response","23","17251","0.0-1.0-0.22","on5ptksff6","454.39999999507563","<span class=stimul>gare</span>","0","Correct"
"","html-button-response","24","17710","0.0-1.0-0.23","on5ptksff6","455.5000000036671","<span class=stimul>lire</span>","0","Correct"
"","html-button-response","25","18184","0.0-1.0-0.24","on5ptksff6","470.09999999863794","<span class=stimul>bon</span>","0","Correct"
"","html-button-response","26","18814","0.0-1.0-0.25","on5ptksff6","626.4999999984866","<span class=stimul>mardi</span>","0","Correct"
"","html-button-response","27","19427","0.0-1.0-0.26","on5ptksff6","609.4000000011874","<span class=stimul>col</span>","0","Correct"
"","html-button-response","28","19862","0.0-1.0-0.27","on5ptksff6","431.10000000160653","<span class=stimul>avril</span>","0","Correct"
"","html-button-response","29","20354","0.0-1.0-0.28","on5ptksff6","488.79999999917345","<span class=stimul>roi</span>","0","Correct"
"","html-button-response","30","20853","0.0-1.0-0.29","on5ptksff6","496.19999999413267","<span class=stimul>faire</span>","0","Correct"
"","html-button-response","31","21296","0.0-1.0-0.30","on5ptksff6","439.20000000071013","<span class=stimul>facile</span>","0","Correct"
"","html-button-response","32","21731","0.0-1.0-0.31","on5ptksff6","431.10000000160653","<span class=stimul>cheval</span>","0","Correct"
"","html-button-response","33","22197","0.0-1.0-0.32","on5ptksff6","462.69999999640277","<span class=stimul>vrai</span>","0","Correct"
"","html-button-response","34","22687","0.0-1.0-0.33","on5ptksff6","486.39999999431893","<span class=stimul>ligne</span>","0","Correct"
"","html-button-response","35","23399","0.0-1.0-0.34","on5ptksff6","708.5999999981141","<span class=stimul>porte</span>","0","Correct"
"","html-button-response","36","23946","0.0-1.0-0.35","on5ptksff6","543.2999999975436","<span class=stimul>autre</span>","0","Correct"
"","html-button-response","37","25027","0.0-1.0-0.36","on5ptksff6","1077.8000000063912","<span class=stimul>loup</span>","0","Correct"
"","html-button-response","38","25903","0.0-1.0-0.37","on5ptksff6","871.5999999985797","<span class=stimul>soir</span>","0","Correct"
"","html-button-response","39","26474","0.0-1.0-0.38","on5ptksff6","567.1999999976833","<span class=stimul>page</span>","0","Correct"
"","html-button-response","40","27314","0.0-1.0-0.39","on5ptksff6","836.7999999973108","<span class=stimul>raisin</span>","0","Correct"
"","html-button-response","41","27838","0.0-1.0-0.40","on5ptksff6","520.3000000037719","<span class=stimul>car</span>","0","Correct"
"","html-button-response","42","28312","0.0-1.0-0.41","on5ptksff6","469.8999999964144","<span class=stimul>sucre</span>","0","Correct"
"","html-button-response","43","29106","0.0-1.0-0.42","on5ptksff6","789.2999999967287","<span class=stimul>chat</span>","0","Correct"
"","html-button-response","44","29631","0.0-1.0-0.43","on5ptksff6","521.4999999952852","<span class=stimul>matin</span>","0","Correct"
"","html-button-response","45","30118","0.0-1.0-0.44","on5ptksff6","483.700000004319","<span class=stimul>trésor</span>","0","Correct"
"","html-button-response","46","30633","0.0-1.0-0.45","on5ptksff6","510.999999998603","<span class=stimul>soixante</span>","0","Correct"
"","html-button-response","47","31132","0.0-1.0-0.46","on5ptksff6","495.49999999726424","<span class=stimul>lundi</span>","0","Correct"
"","html-button-response","48","31631","0.0-1.0-0.47","on5ptksff6","495.6999999994878","<span class=stimul>rose</span>","0","Correct"
"","html-button-response","49","32122","0.0-1.0-0.48","on5ptksff6","487.0999999984633","<span class=stimul>visage</span>","0","Correct"
"","html-button-response","50","32637","0.0-1.0-0.49","on5ptksff6","511.20000000082655","<span class=stimul>six</span>","0","Correct"
"","html-button-response","51","33226","0.0-1.0-0.50","on5ptksff6","585.8999999982188","<span class=stimul>ciseau</span>","0","Correct"
"","html-button-response","52","33786","0.0-1.0-0.51","on5ptksff6","555.899999999383","<span class=stimul>août</span>","0","Correct"
"","html-button-response","53","34241","0.0-1.0-0.52","on5ptksff6","451.30000000062864","<span class=stimul>pays</span>","0","Correct"
"","html-button-response","54","34766","0.0-1.0-0.53","on5ptksff6","521.6000000000349","<span class=stimul>balai</span>","0","Correct"
"","html-button-response","55","35234","0.0-1.0-0.54","on5ptksff6","465.1000000012573","<span class=stimul>fille</span>","0","Correct"
"","html-button-response","56","35691","0.0-1.0-0.55","on5ptksff6","452.9999999940628","<span class=stimul>sept</span>","0","Correct"
"","html-button-response","57","36108","0.0-1.0-0.56","on5ptksff6","413.2000000026892","<span class=stimul>lourd</span>","0","Correct"
"","html-button-response","58","36606","0.0-1.0-0.57","on5ptksff6","494.69999999564607","<span class=stimul>femme</span>","0","Correct"
"","html-button-response","59","37015","0.0-1.0-0.58","on5ptksff6","404.60000000166474","<span class=stimul>garage</span>","0","Correct"
"","html-button-response","60","37556","0.0-1.0-0.59","on5ptksff6","537.6000000032946","<span class=stimul>hibou</span>","0","Correct"
"true","fullscreen","61","38561","0.0-2.0","on5ptksff6","","","",""
"true","fullscreen","0","7802","0.0-0.0","vh28975p0v","","","",""
"","html-button-response","1","10861","0.0-1.0-0.0","vh28975p0v","3035.1000000009662","<span class=stimul>o</span>","0","Correct"
"","html-button-response","2","11175","0.0-1.0-0.1","vh28975p0v","308.3999999980733","<span class=stimul>i</span>","0","Correct"
"","html-button-response","3","11456","0.0-1.0-0.2","vh28975p0v","275.8999999969092","<span class=stimul>bi</span>","0","Correct"
"","html-button-response","4","11897","0.0-1.0-0.3","vh28975p0v","437.29999999777647","<span class=stimul>ul</span>","0","Correct"
"","html-button-response","5","12296","0.0-1.0-0.4","vh28975p0v","394.29999999993015","<span class=stimul>til</span>","0","Correct"
"","html-button-response","6","12701","0.0-1.0-0.5","vh28975p0v","400.90000000054715","<span class=stimul>ja</span>","0","Correct"
"","html-button-response","7","13084","0.0-1.0-0.6","vh28975p0v","378.6000000000058","<span class=stimul>ol</span>","0","Correct"
"","html-button-response","8","13483","0.0-1.0-0.7","vh28975p0v","394.800000001851","<span class=stimul>ata</span>","0","Correct"
"","html-button-response","9","13940","0.0-1.0-0.8","vh28975p0v","453.59999999709544","<span class=stimul>dik</span>","0","Correct"
"","html-button-response","10","14294","0.0-1.0-0.9","vh28975p0v","349.6999999988475","<span class=stimul>nar</span>","0","Correct"
"","html-button-response","11","14903","0.0-1.0-0.10","vh28975p0v","605.0999999970372","<span class=stimul>vaf</span>","0","Correct"
"","html-button-response","12","15318","0.0-1.0-0.11","vh28975p0v","411.4000000008673","<span class=stimul>zou</span>","0","Correct"
"","html-button-response","13","15774","0.0-1.0-0.12","vh28975p0v","451.7999999989115","<span class=stimul>dul</span>","0","Correct"
"","html-button-response","14","16264","0.0-1.0-0.13","vh28975p0v","486.19999999937136","<span class=stimul>lévo</span>","0","Correct"
"","html-button-response","15","16794","0.0-1.0-0.14","vh28975p0v","525.9999999980209","<span class=stimul>tur</span>","0","Correct"
"","html-button-response","16","17233","0.0-1.0-0.15","vh28975p0v","435.40000000211876","<span class=stimul>veur</span>","0","Correct"
"","html-button-response","17","17732","0.0-1.0-0.16","vh28975p0v","496.3999999999942","<span class=stimul>col</span>","0","Correct"
"","html-button-response","18","18298","0.0-1.0-0.17","vh28975p0v","561.9999999980791","<span class=stimul>noil</span>","0","Correct"
"","html-button-response","19","20356","0.0-1.0-0.18","vh28975p0v","2053.70000000039","<span class=stimul>opa</span>","0","Correct"
"","html-button-response","20","20862","0.0-1.0-0.19","vh28975p0v","502.4999999986903","<span class=stimul>jal</span>","0","Correct"
"","html-button-response","21","21333","0.0-1.0-0.20","vh28975p0v","467.40000000136206","<span class=stimul>neau</span>","0","Correct"
"","html-button-response","22","21806","0.0-1.0-0.21","vh28975p0v","468.4000000015658","<span class=stimul>timé</span>","0","Correct"
"","html-button-response","23","22365","0.0-1.0-0.22","vh28975p0v","554.8999999991793","<span class=stimul>cal</span>","0","Correct"
"","html-button-response","24","22752","0.0-1.0-0.23","vh28975p0v","379.8000000024331","<span class=stimul>tibe</span>","0","Correct"
"","html-button-response","25","23142","0.0-1.0-0.24","vh28975p0v","385.7000000025437","<span class=stimul>lupe</span>","0","Correct"
"","html-button-response","26","23475","0.0-1.0-0.25","vh28975p0v","329.4999999998254","<span class=stimul>pirde</span>","0","Correct"
"","html-button-response","27","23954","0.0-1.0-0.26","vh28975p0v","475.6999999990512","<span class=stimul>gor</span>","0","Correct"
"","html-button-response","28","24437","0.0-1.0-0.27","vh28975p0v","479.19999999794527","<span class=stimul>ablir</span>","0","Correct"
"","html-button-response","29","24902","0.0-1.0-0.28","vh28975p0v","460.6999999996333","<span class=stimul>sar</span>","0","Correct"
"","html-button-response","30","25319","0.0-1.0-0.29","vh28975p0v","413.1000000015774","<span class=stimul>vaipe</span>","0","Correct"
"","html-button-response","31","25765","0.0-1.0-0.30","vh28975p0v","442.5999999984924","<span class=stimul>cifale</span>","0","Correct"
"","html-button-response","32","26205","0.0-1.0-0.31","vh28975p0v","435.1999999998952","<span class=stimul>sapir</span>","0","Correct"
"","html-button-response","33","26622","0.0-1.0-0.32","vh28975p0v","413.9000000031956","<span class=stimul>vro</span>","0","Correct"
"","html-button-response","34","27022","0.0-1.0-0.33","vh28975p0v","395.8999999995285","<span class=stimul>rigne</span>","0","Correct"
"","html-button-response","35","27484","0.0-1.0-0.34","vh28975p0v","458.30000000205473","<span class=stimul>rosan</span>","0","Correct"
"","html-button-response","36","27865","0.0-1.0-0.35","vh28975p0v","377.3000000001048","<span class=stimul>aubre</span>","0","Correct"
"","html-button-response","37","28330","0.0-1.0-0.36","vh28975p0v","461.4000000001397","<span class=stimul>talpe</span>","0","Correct"
"","html-button-response","38","28761","0.0-1.0-0.37","vh28975p0v","426.499999997759","<span class=stimul>gur</span>","0","Correct"
"","html-button-response","39","29084","0.0-1.0-0.38","vh28975p0v","319.5000000014261","<span class=stimul>louré</span>","0","Correct"
"","html-button-response","40","29557","0.0-1.0-0.39","vh28975p0v","469.60000000035507","<span class=stimul>ragife</span>","0","Correct"
"","html-button-response","41","29981","0.0-1.0-0.40","vh28975p0v","419.0999999991618","<span class=stimul>noge</span>","0","Correct"
"","html-button-response","42","30455","0.0-1.0-0.41","vh28975p0v","470.40000000197324","<span class=stimul>tope</span>","0","Correct"
"","html-button-response","43","30919","0.0-1.0-0.42","vh28975p0v","459.9999999991269","<span class=stimul>uché</span>","0","Correct"
"","html-button-response","44","31393","0.0-1.0-0.43","vh28975p0v","470.6000000005588","<span class=stimul>truson</span>","0","Correct"
"","html-button-response","45","31825","0.0-1.0-0.44","vh28975p0v","428.40000000069267","<span class=stimul>ranli</span>","0","Correct"
"","html-button-response","46","32421","0.0-1.0-0.45","vh28975p0v","591.8000000019674","<span class=stimul>tosir</span>","0","Correct"
"","html-button-response","47","32807","0.0-1.0-0.46","vh28975p0v","381.79999999920256","<span class=stimul>poitade</span>","0","Correct"
"","html-button-response","48","33295","0.0-1.0-0.47","vh28975p0v","484.1999999989639","<span class=stimul>ousir</span>","0","Correct"
"","html-button-response","49","34126","0.0-1.0-0.48","vh28975p0v","827.4999999994179","<span class=stimul>bapre</span>","0","Correct"
"","html-button-response","50","34748","0.0-1.0-0.49","vh28975p0v","618.2000000007974","<span class=stimul>gigne</span>","0","Correct"
"","html-button-response","51","35271","0.0-1.0-0.50","vh28975p0v","519.1999999988184","<span class=stimul>gésin</span>","0","Correct"
"","html-button-response","52","35679","0.0-1.0-0.51","vh28975p0v","404.499999996915","<span class=stimul>kraulir</span>","0","Correct"
"","html-button-response","53","36062","0.0-1.0-0.52","vh28975p0v","378.2999999966705","<span class=stimul>cibe</span>","0","Correct"
"","html-button-response","54","36498","0.0-1.0-0.53","vh28975p0v","432.6999999975669","<span class=stimul>maipe</span>","0","Correct"
"","html-button-response","55","36924","0.0-1.0-0.54","vh28975p0v","421.80000000007567","<span class=stimul>ligase</span>","0","Correct"
"","html-button-response","56","37332","0.0-1.0-0.55","vh28975p0v","403.90000000115833","<span class=stimul>gofi</span>","0","Correct"
"","html-button-response","57","37772","0.0-1.0-0.56","vh28975p0v","435.9999999978754","<span class=stimul>cipre</span>","0","Correct"
"","html-button-response","58","38353","0.0-1.0-0.57","vh28975p0v","577.2000000033586","<span class=stimul>tasin</span>","0","Correct"
"","html-button-response","59","38783","0.0-1.0-0.58","vh28975p0v","425.7999999972526","<span class=stimul>cipé</span>","0","Correct"
"","html-button-response","60","39388","0.0-1.0-0.59","vh28975p0v","601.6999999992549","<span class=stimul>punse</span>","0","Correct"
"true","fullscreen","61","40392","0.0-2.0","vh28975p0v","","","",""
"true","fullscreen","0","10911","0.0-0.0","x2kop93z1j","","","",""
"","html-button-response","1","11843","0.0-1.0-0.0","x2kop93z1j","903.5000000003492","<span class=stimul>à</span>","0","Correct"
"","html-button-response","2","12276","0.0-1.0-0.1","x2kop93z1j","428.49999999816646","<span class=stimul>où</span>","0","Correct"
"","html-button-response","3","12723","0.0-1.0-0.2","x2kop93z1j","442.50000000101863","<span class=stimul>la</span>","0","Correct"
"","html-button-response","4","13190","0.0-1.0-0.3","x2kop93z1j","463.10000000084983","<span class=stimul>au</span>","0","Correct"
"","html-button-response","5","13584","0.0-1.0-0.4","x2kop93z1j","388.39999999981956","<span class=stimul>tu</span>","0","Correct"
"","html-button-response","6","14022","0.0-1.0-0.5","x2kop93z1j","434.00000000110595","<span class=stimul>un</span>","0","Correct"
"","html-button-response","7","14411","0.0-1.0-0.6","x2kop93z1j","385.09999999951106","<span class=stimul>il</span>","0","Correct"
"","html-button-response","8","14802","0.0-1.0-0.7","x2kop93z1j","387.0000000024447","<span class=stimul>été</span>","0","Correct"
"","html-button-response","9","15276","0.0-1.0-0.8","x2kop93z1j","469.9999999975262","<span class=stimul>on</span>","0","Correct"
"","html-button-response","10","15659","0.0-1.0-0.9","x2kop93z1j","378.89999999970314","<span class=stimul>mur</span>","0","Correct"
"","html-button-response","11","16068","0.0-1.0-0.10","x2kop93z1j","404.500000000553","<span class=stimul>ni</span>","0","Correct"
"","html-button-response","12","16494","0.0-1.0-0.11","x2kop93z1j","422.5000000005821","<span class=stimul>sur</span>","0","Correct"
"","html-button-response","13","16920","0.0-1.0-0.12","x2kop93z1j","421.9999999986612","<span class=stimul>qui</span>","0","Correct"
"","html-button-response","14","17681","0.0-1.0-0.13","x2kop93z1j","757.6000000008207","<span class=stimul>vélo</span>","0","Correct"
"","html-button-response","15","18024","0.0-1.0-0.14","x2kop93z1j","339.19999999852735","<span class=stimul>par</span>","0","Correct"
"","html-button-response","16","18356","0.0-1.0-0.15","x2kop93z1j","327.900000000227","<span class=stimul>feu</span>","0","Correct"
"","html-button-response","17","19164","0.0-1.0-0.16","x2kop93z1j","804.4000000008964","<span class=stimul>ce</span>","0","Correct"
"","html-button-response","18","19523","0.0-1.0-0.17","x2kop93z1j","354.6999999998661","<span class=stimul>peur</span>","0","Correct"
"","html-button-response","19","19942","0.0-1.0-0.18","x2kop93z1j","414.7000000011758","<span class=stimul>ami</span>","0","Correct"
"","html-button-response","20","20340","0.0-1.0-0.19","x2kop93z1j","394.5000000021537","<span class=stimul>moto</span>","0","Correct"
"","html-button-response","21","20731","0.0-1.0-0.20","x2kop93z1j","387.29999999850406","<span class=stimul>peau</span>","0","Correct"
"","html-button-response","22","21113","0.0-1.0-0.21","x2kop93z1j","377.8999999994994","<span class=stimul>lune</span>","0","Correct"
"","html-button-response","23","21539","0.0-1.0-0.22","x2kop93z1j","422.3000000019965","<span class=stimul>gare</span>","0","Correct"
"","html-button-response","24","21923","0.0-1.0-0.23","x2kop93z1j","375.89999999909196","<span class=stimul>lire</span>","0","Correct"
"","html-button-response","25","22356","0.0-1.0-0.24","x2kop93z1j","428.80000000150176","<span class=stimul>bon</span>","0","Correct"
"","html-button-response","26","22749","0.0-1.0-0.25","x2kop93z1j","388.49999999729334","<span class=stimul>mardi</span>","0","Correct"
"","html-button-response","27","23147","0.0-1.0-0.26","x2kop93z1j","394.800000001851","<span class=stimul>col</span>","0","Correct"
"","html-button-response","28","23620","0.0-1.0-0.27","x2kop93z1j","469.30000000065775","<span class=stimul>avril</span>","0","Correct"
"","html-button-response","29","23994","0.0-1.0-0.28","x2kop93z1j","370.5000000009022","<span class=stimul>roi</span>","0","Correct"
"","html-button-response","30","24853","0.0-1.0-0.29","x2kop93z1j","854.6999999998661","<span class=stimul>faire</span>","0","Correct"
"","html-button-response","31","25420","0.0-1.0-0.30","x2kop93z1j","562.3999999988882","<span class=stimul>facile</span>","0","Correct"
"","html-button-response","32","25850","0.0-1.0-0.31","x2kop93z1j","426.69999999998254","<span class=stimul>cheval</span>","0","Correct"
"","html-button-response","33","26283","0.0-1.0-0.32","x2kop93z1j","429.19999999867287","<span class=stimul>vrai</span>","0","Correct"
"","html-button-response","34","26724","0.0-1.0-0.33","x2kop93z1j","436.4999999997963","<span class=stimul>ligne</span>","0","Correct"
"","html-button-response","35","27106","0.0-1.0-0.34","x2kop93z1j","377.79999999838765","<span class=stimul>porte</span>","0","Correct"
"","html-button-response","36","27933","0.0-1.0-0.35","x2kop93z1j","823.3000000000175","<span class=stimul>autre</span>","0","Correct"
"","html-button-response","37","28307","0.0-1.0-0.36","x2kop93z1j","370.39999999979045","<span class=stimul>loup</span>","0","Correct"
"","html-button-response","38","28631","0.0-1.0-0.37","x2kop93z1j","320.6000000027416","<span class=stimul>soir</span>","0","Correct"
"","html-button-response","39","28967","0.0-1.0-0.38","x2kop93z1j","332.09999999962747","<span class=stimul>page</span>","0","Correct"
"","html-button-response","40","29375","0.0-1.0-0.39","x2kop93z1j","404.0999999997439","<span class=stimul>raisin</span>","0","Correct"
"","html-button-response","41","29751","0.0-1.0-0.40","x2kop93z1j","371.80000000080327","<span class=stimul>car</span>","0","Correct"
"","html-button-response","42","30209","0.0-1.0-0.41","x2kop93z1j","453.90000000043074","<span class=stimul>sucre</span>","0","Correct"
"","html-button-response","43","31310","0.0-1.0-0.42","x2kop93z1j","1096.9000000004598","<span class=stimul>chat</span>","0","Correct"
"","html-button-response","44","31690","0.0-1.0-0.43","x2kop93z1j","375.59999999939464","<span class=stimul>matin</span>","0","Correct"
"","html-button-response","45","32125","0.0-1.0-0.44","x2kop93z1j","431.49999999877764","<span class=stimul>trésor</span>","0","Correct"
"","html-button-response","46","32549","0.0-1.0-0.45","x2kop93z1j","420.6000000012864","<span class=stimul>soixante</span>","0","Correct"
"","html-button-response","47","32907","0.0-1.0-0.46","x2kop93z1j","353.3999999999651","<span class=stimul>lundi</span>","0","Correct"
"","html-button-response","48","33406","0.0-1.0-0.47","x2kop93z1j","496.10000000029686","<span class=stimul>rose</span>","0","Correct"
"","html-button-response","49","33951","0.0-1.0-0.48","x2kop93z1j","540.2000000030966","<span class=stimul>visage</span>","0","Correct"
"","html-button-response","50","34638","0.0-1.0-0.49","x2kop93z1j","683.7999999988824","<span class=stimul>six</span>","0","Correct"
"","html-button-response","51","34806","0.0-1.0-0.50","x2kop93z1j","163.79999999844586","<span class=stimul>ciseau</span>","0","Correct"
"","html-button-response","52","35033","0.0-1.0-0.51","x2kop93z1j","222.7999999995518","<span class=stimul>août</span>","0","Correct"
"","html-button-response","53","35297","0.0-1.0-0.52","x2kop93z1j","260.3999999992084","<span class=stimul>pays</span>","0","Correct"
"","html-button-response","54","35462","0.0-1.0-0.53","x2kop93z1j","161.29999999975553","<span class=stimul>balai</span>","0","Correct"
"","html-button-response","55","35758","0.0-1.0-0.54","x2kop93z1j","291.70000000158325","<span class=stimul>fille</span>","0","Correct"
"","html-button-response","56","35973","0.0-1.0-0.55","x2kop93z1j","211.20000000155414","<span class=stimul>sept</span>","0","Correct"
"","html-button-response","57","36203","0.0-1.0-0.56","x2kop93z1j","226.29999999844586","<span class=stimul>lourd</span>","0","Correct"
"","html-button-response","58","36377","0.0-1.0-0.57","x2kop93z1j","170.2000000004773","<span class=stimul>femme</span>","0","Correct"
"","html-button-response","59","36560","0.0-1.0-0.58","x2kop93z1j","178.79999999786378","<span class=stimul>garage</span>","0","Correct"
"","html-button-response","60","36754","0.0-1.0-0.59","x2kop93z1j","191.10000000000582","<span class=stimul>hibou</span>","0","Correct"
"true","fullscreen","61","37757","0.0-2.0","x2kop93z1j","","","",""
"true","fullscreen","0","6441","0.0-0.0","y122temxxx","","","",""
"","html-button-response","1","7548","0.0-1.0-0.0","y122temxxx","1085.2000000013504","<span class=stimul>à</span>","0","Correct"
"","html-button-response","2","8205","0.0-1.0-0.1","y122temxxx","652.3999999990338","<span class=stimul>où</span>","0","Correct"
"","html-button-response","3","9210","0.0-1.0-0.2","y122temxxx","1000.0999999974738","<span class=stimul>la</span>","0","Correct"
"","html-button-response","4","9726","0.0-1.0-0.3","y122temxxx","511.3000000019383","<span class=stimul>au</span>","0","Correct"
"","html-button-response","5","10711","0.0-1.0-0.4","y122temxxx","981.1999999983527","<span class=stimul>tu</span>","0","Correct"
"","html-button-response","6","11221","0.0-1.0-0.5","y122temxxx","505.39999999818974","<span class=stimul>un</span>","0","Correct"
"","html-button-response","7","11730","0.0-1.0-0.6","y122temxxx","504.89999999990687","<span class=stimul>il</span>","0","Correct"
"","html-button-response","8","12182","0.0-1.0-0.7","y122temxxx","448.70000000082655","<span class=stimul>été</span>","0","Correct"
"","html-button-response","9","12684","0.0-1.0-0.8","y122temxxx","497.29999999908614","<span class=stimul>on</span>","0","Correct"
"","html-button-response","10","13177","0.0-1.0-0.9","y122temxxx","489.19999999998254","<span class=stimul>mur</span>","0","Correct"
"","html-button-response","11","13760","0.0-1.0-0.10","y122temxxx","579.4999999998254","<span class=stimul>ni</span>","0","Correct"
"","html-button-response","12","14240","0.0-1.0-0.11","y122temxxx","475.3999999993539","<span class=stimul>sur</span>","0","Correct"
"","html-button-response","13","14707","0.0-1.0-0.12","y122temxxx","463.10000000084983","<span class=stimul>qui</span>","0","Correct"
"","html-button-response","14","15137","0.0-1.0-0.13","y122temxxx","425.99999999947613","<span class=stimul>vélo</span>","0","Correct"
"","html-button-response","15","15603","0.0-1.0-0.14","y122temxxx","462.5000000014552","<span class=stimul>par</span>","0","Correct"
"","html-button-response","16","16029","0.0-1.0-0.15","y122temxxx","421.6999999989639","<span class=stimul>feu</span>","0","Correct"
"","html-button-response","17","16481","0.0-1.0-0.16","y122temxxx","448.1000000014319","<span class=stimul>ce</span>","0","Correct"
"","html-button-response","18","16944","0.0-1.0-0.17","y122temxxx","459.30000000225846","<span class=stimul>peur</span>","0","Correct"
"","html-button-response","19","17446","0.0-1.0-0.18","y122temxxx","497.6999999998952","<span class=stimul>ami</span>","0","Correct"
"","html-button-response","20","17913","0.0-1.0-0.19","y122temxxx","463.10000000084983","<span class=stimul>moto</span>","0","Correct"
"","html-button-response","21","18424","0.0-1.0-0.20","y122temxxx","507.3999999985972","<span class=stimul>peau</span>","0","Correct"
"","html-button-response","22","18899","0.0-1.0-0.21","y122temxxx","470.9000000002561","<span class=stimul>lune</span>","0","Correct"
"","html-button-response","23","19327","0.0-1.0-0.22","y122temxxx","424.2000000012922","<span class=stimul>gare</span>","0","Correct"
"","html-button-response","24","19812","0.0-1.0-0.23","y122temxxx","480.70000000006985","<span class=stimul>lire</span>","0","Correct"
"","html-button-response","25","20392","0.0-1.0-0.24","y122temxxx","577.000000001135","<span class=stimul>bon</span>","0","Correct"
"","html-button-response","26","20812","0.0-1.0-0.25","y122temxxx","415.0999999983469","<span class=stimul>mardi</span>","0","Correct"
"","html-button-response","27","21248","0.0-1.0-0.26","y122temxxx","432.6999999975669","<span class=stimul>col</span>","0","Correct"
"","html-button-response","28","21635","0.0-1.0-0.27","y122temxxx","383.4000000024389","<span class=stimul>avril</span>","0","Correct"
"","html-button-response","29","22025","0.0-1.0-0.28","y122temxxx","385.7000000025437","<span class=stimul>roi</span>","0","Correct"
"","html-button-response","30","22420","0.0-1.0-0.29","y122temxxx","391.39999999679276","<span class=stimul>faire</span>","0","Correct"
"","html-button-response","31","22814","0.0-1.0-0.30","y122temxxx","390.1999999980035","<span class=stimul>facile</span>","0","Correct"
"","html-button-response","32","23192","0.0-1.0-0.31","y122temxxx","374.10000000090804","<span class=stimul>cheval</span>","0","Correct"
"","html-button-response","33","23677","0.0-1.0-0.32","y122temxxx","481.1999999983527","<span class=stimul>vrai</span>","0","Correct"
"","html-button-response","34","24178","0.0-1.0-0.33","y122temxxx","497.1999999979744","<span class=stimul>ligne</span>","0","Correct"
"","html-button-response","35","24729","0.0-1.0-0.34","y122temxxx","546.5000000003783","<span class=stimul>porte</span>","0","Correct"
"","html-button-response","36","25173","0.0-1.0-0.35","y122temxxx","439.90000000121654","<span class=stimul>autre</span>","0","Correct"
"","html-button-response","37","25516","0.0-1.0-0.36","y122temxxx","339.4000000007509","<span class=stimul>loup</span>","0","Correct"
"","html-button-response","38","25829","0.0-1.0-0.37","y122temxxx","309.40000000191503","<span class=stimul>soir</span>","0","Correct"
"","html-button-response","39","26092","0.0-1.0-0.38","y122temxxx","258.79999999961","<span class=stimul>page</span>","0","Correct"
"","html-button-response","40","26418","0.0-1.0-0.39","y122temxxx","322.1000000012282","<span class=stimul>raisin</span>","0","Correct"
"","html-button-response","41","26789","0.0-1.0-0.40","y122temxxx","366.8999999972584","<span class=stimul>car</span>","0","Correct"
"","html-button-response","42","27093","0.0-1.0-0.41","y122temxxx","300.20000000149594","<span class=stimul>sucre</span>","0","Correct"
"","html-button-response","43","27366","0.0-1.0-0.42","y122temxxx","268.7000000005355","<span class=stimul>chat</span>","0","Correct"
"","html-button-response","44","27701","0.0-1.0-0.43","y122temxxx","331.9000000010419","<span class=stimul>matin</span>","0","Correct"
"","html-button-response","45","28235","0.0-1.0-0.44","y122temxxx","529.1999999972177","<span class=stimul>trésor</span>","0","Correct"
"","html-button-response","46","28736","0.0-1.0-0.45","y122temxxx","496.90000000191503","<span class=stimul>soixante</span>","0","Correct"
"","html-button-response","47","29120","0.0-1.0-0.46","y122temxxx","380.00000000101863","<span class=stimul>lundi</span>","0","Correct"
"","html-button-response","48","29376","0.0-1.0-0.47","y122temxxx","252.5999999998021","<span class=stimul>rose</span>","0","Correct"
"","html-button-response","49","29705","0.0-1.0-0.48","y122temxxx","324.49999999880674","<span class=stimul>visage</span>","0","Correct"
"","html-button-response","50","29999","0.0-1.0-0.49","y122temxxx","290.1000000019849","<span class=stimul>six</span>","0","Correct"
"","html-button-response","51","30403","0.0-1.0-0.50","y122temxxx","400.60000000084983","<span class=stimul>ciseau</span>","0","Correct"
"","html-button-response","52","30722","0.0-1.0-0.51","y122temxxx","314.699999998993","<span class=stimul>août</span>","0","Correct"
"","html-button-response","53","31017","0.0-1.0-0.52","y122temxxx","290.99999999743886","<span class=stimul>pays</span>","0","Correct"
"","html-button-response","54","31289","0.0-1.0-0.53","y122temxxx","268.10000000114087","<span class=stimul>balai</span>","0","Correct"
"","html-button-response","55","31543","0.0-1.0-0.54","y122temxxx","249.5999999991909","<span class=stimul>fille</span>","0","Correct"
"","html-button-response","56","31848","0.0-1.0-0.55","y122temxxx","301.69999999998254","<span class=stimul>sept</span>","0","Correct"
"","html-button-response","57","32104","0.0-1.0-0.56","y122temxxx","251.8999999992957","<span class=stimul>lourd</span>","0","Correct"
"","html-button-response","58","32440","0.0-1.0-0.57","y122temxxx","332.300000001851","<span class=stimul>femme</span>","0","Correct"
"","html-button-response","59","32761","0.0-1.0-0.58","y122temxxx","316.8000000005122","<span class=stimul>garage</span>","0","Correct"
"","html-button-response","60","33170","0.0-1.0-0.59","y122temxxx","404.8999999977241","<span class=stimul>hibou</span>","0","Correct"
"true","fullscreen","61","34174","0.0-2.0","y122temxxx","","","",""
"true","fullscreen","0","4322","0.0-0.0","vwp5gnqul4","","","",""
"","html-button-response","1","5390","0.0-1.0-0.0","vwp5gnqul4","1046.8000000000757","<span class=stimul>o</span>","0","Correct"
"","html-button-response","2","5777","0.0-1.0-0.1","vwp5gnqul4","381.3000000009197","<span class=stimul>i</span>","0","Correct"
"","html-button-response","3","6173","0.0-1.0-0.2","vwp5gnqul4","392.3999999969965","<span class=stimul>bi</span>","0","Correct"
"","html-button-response","4","6582","0.0-1.0-0.3","vwp5gnqul4","404.1999999972177","<span class=stimul>ul</span>","0","Correct"
"","html-button-response","5","7002","0.0-1.0-0.4","vwp5gnqul4","415.69999999774154","<span class=stimul>til</span>","0","Correct"
"","html-button-response","6","7445","0.0-1.0-0.5","vwp5gnqul4","439.3000000018219","<span class=stimul>ja</span>","0","Correct"
"","html-button-response","7","7891","0.0-1.0-0.6","vwp5gnqul4","441.69999999940046","<span class=stimul>ol</span>","0","Correct"
"","html-button-response","8","8284","0.0-1.0-0.7","vwp5gnqul4","388.80000000062864","<span class=stimul>ata</span>","0","Correct"
"","html-button-response","9","8729","0.0-1.0-0.8","vwp5gnqul4","440.8000000003085","<span class=stimul>dik</span>","0","Correct"
"","html-button-response","10","9250","0.0-1.0-0.9","vwp5gnqul4","517.1999999984109","<span class=stimul>nar</span>","0","Correct"
"","html-button-response","11","9699","0.0-1.0-0.10","vwp5gnqul4","445.1000000008207","<span class=stimul>vaf</span>","0","Correct"
"","html-button-response","12","10225","0.0-1.0-0.11","vwp5gnqul4","521.8999999997322","<span class=stimul>zou</span>","0","Correct"
"","html-button-response","13","11049","0.0-1.0-0.12","vwp5gnqul4","820.1000000008207","<span class=stimul>dul</span>","0","Correct"
"","html-button-response","14","11642","0.0-1.0-0.13","vwp5gnqul4","589.7000000004482","<span class=stimul>lévo</span>","0","Correct"
"","html-button-response","15","12103","0.0-1.0-0.14","vwp5gnqul4","456.50000000023283","<span class=stimul>tur</span>","0","Correct"
"","html-button-response","16","12678","0.0-1.0-0.15","vwp5gnqul4","571.0999999973865","<span class=stimul>veur</span>","0","Correct"
"","html-button-response","17","13130","0.0-1.0-0.16","vwp5gnqul4","448.30000000001746","<span class=stimul>col</span>","0","Correct"
"","html-button-response","18","13576","0.0-1.0-0.17","vwp5gnqul4","442.39999999990687","<span class=stimul>noil</span>","0","Correct"
"","html-button-response","19","14159","0.0-1.0-0.18","vwp5gnqul4","579.2000000001281","<span class=stimul>opa</span>","0","Correct"
"","html-button-response","20","14641","0.0-1.0-0.19","vwp5gnqul4","477.69999999945867","<span class=stimul>jal</span>","0","Correct"
"","html-button-response","21","15395","0.0-1.0-0.20","vwp5gnqul4","750.2999999996973","<span class=stimul>neau</span>","0","Correct"
"","html-button-response","22","15945","0.0-1.0-0.21","vwp5gnqul4","546.200000000681","<span class=stimul>timé</span>","0","Correct"
"","html-button-response","23","16479","0.0-1.0-0.22","vwp5gnqul4","530.5000000007567","<span class=stimul>cal</span>","0","Correct"
"","html-button-response","24","17121","0.0-1.0-0.23","vwp5gnqul4","637.8000000004249","<span class=stimul>tibe</span>","0","Correct"
"","html-button-response","25","18221","0.0-1.0-0.24","vwp5gnqul4","1096.4999999996508","<span class=stimul>lupe</span>","0","Correct"
"","html-button-response","26","19060","0.0-1.0-0.25","vwp5gnqul4","834.6999999994296","<span class=stimul>pirde</span>","0","Correct"
"","html-button-response","27","20201","0.0-1.0-0.26","vwp5gnqul4","1137.0000000024447","<span class=stimul>gor</span>","0","Correct"
"","html-button-response","28","20924","0.0-1.0-0.27","vwp5gnqul4","719.1000000020722","<span class=stimul>ablir</span>","0","Correct"
"","html-button-response","29","21634","0.0-1.0-0.28","vwp5gnqul4","706.7999999999302","<span class=stimul>sar</span>","0","Correct"
"","html-button-response","30","23240","0.0-1.0-0.29","vwp5gnqul4","1601.9999999989523","<span class=stimul>vaipe</span>","0","Correct"
"","html-button-response","31","24307","0.0-1.0-0.30","vwp5gnqul4","1063.399999999092","<span class=stimul>cifale</span>","0","Correct"
"","html-button-response","32","24859","0.0-1.0-0.31","vwp5gnqul4","547.3000000019965","<span class=stimul>sapir</span>","0","Correct"
"","html-button-response","33","25525","0.0-1.0-0.32","vwp5gnqul4","662.1999999988475","<span class=stimul>vro</span>","0","Correct"
"","html-button-response","34","26023","0.0-1.0-0.33","vwp5gnqul4","494.700000002922","<span class=stimul>rigne</span>","0","Correct"
"","html-button-response","35","26549","0.0-1.0-0.34","vwp5gnqul4","521.6000000000349","<span class=stimul>rosan</span>","0","Correct"
"","html-button-response","36","27329","0.0-1.0-0.35","vwp5gnqul4","776.5999999974156","<span class=stimul>aubre</span>","0","Correct"
"","html-button-response","37","28700","0.0-1.0-0.36","vwp5gnqul4","1366.9000000008964","<span class=stimul>talpe</span>","0","Correct"
"","html-button-response","38","29365","0.0-1.0-0.37","vwp5gnqul4","661.4000000008673","<span class=stimul>gur</span>","0","Correct"
"","html-button-response","39","30037","0.0-1.0-0.38","vwp5gnqul4","667.7999999992608","<span class=stimul>louré</span>","0","Correct"
"","html-button-response","40","30776","0.0-1.0-0.39","vwp5gnqul4","734.599999999773","<span class=stimul>ragife</span>","0","Correct"
"","html-button-response","41","32329","0.0-1.0-0.40","vwp5gnqul4","1549.2000000012922","<span class=stimul>noge</span>","0","Correct"
"","html-button-response","42","32984","0.0-1.0-0.41","vwp5gnqul4","651.1000000027707","<span class=stimul>tope</span>","0","Correct"
"","html-button-response","43","33674","0.0-1.0-0.42","vwp5gnqul4","686.3999999986845","<span class=stimul>uché</span>","0","Correct"
"","html-button-response","44","35404","0.0-1.0-0.43","vwp5gnqul4","1725.9000000012747","<span class=stimul>truson</span>","1","Incorrect"
"","html-button-response","45","36264","0.0-1.0-0.44","vwp5gnqul4","856.2000000019907","<span class=stimul>ranli</span>","0","Correct"
"","html-button-response","46","36872","0.0-1.0-0.45","vwp5gnqul4","603.9999999993597","<span class=stimul>tosir</span>","0","Correct"
"","html-button-response","47","38021","0.0-1.0-0.46","vwp5gnqul4","1144.6000000032654","<span class=stimul>poitade</span>","0","Correct"
"","html-button-response","48","38897","0.0-1.0-0.47","vwp5gnqul4","872.1000000005006","<span class=stimul>ousir</span>","0","Correct"
"","html-button-response","49","40012","0.0-1.0-0.48","vwp5gnqul4","1111.0999999982596","<span class=stimul>bapre</span>","0","Correct"
"","html-button-response","50","41876","0.0-1.0-0.49","vwp5gnqul4","1860.000000000582","<span class=stimul>gigne</span>","1","Incorrect"
"","html-button-response","51","42498","0.0-1.0-0.50","vwp5gnqul4","618.2999999982712","<span class=stimul>gésin</span>","0","Correct"
"","html-button-response","52","44282","0.0-1.0-0.51","vwp5gnqul4","1780.6000000018685","<span class=stimul>kraulir</span>","0","Correct"
"","html-button-response","53","45061","0.0-1.0-0.52","vwp5gnqul4","775.099999998929","<span class=stimul>cibe</span>","0","Correct"
"","html-button-response","54","46198","0.0-1.0-0.53","vwp5gnqul4","1132.9999999979918","<span class=stimul>maipe</span>","0","Correct"
"","html-button-response","55","47223","0.0-1.0-0.54","vwp5gnqul4","1020.8999999995285","<span class=stimul>ligase</span>","0","Correct"
"","html-button-response","56","47911","0.0-1.0-0.55","vwp5gnqul4","684.0999999985797","<span class=stimul>gofi</span>","0","Correct"
"","html-button-response","57","48466","0.0-1.0-0.56","vwp5gnqul4","550.4999999975553","<span class=stimul>cipre</span>","0","Correct"
"","html-button-response","58","48908","0.0-1.0-0.57","vwp5gnqul4","438.79999999990105","<span class=stimul>tasin</span>","0","Correct"
"","html-button-response","59","49820","0.0-1.0-0.58","vwp5gnqul4","907.2000000014668","<span class=stimul>cipé</span>","0","Correct"
"","html-button-response","60","50655","0.0-1.0-0.59","vwp5gnqul4","830.9000000008382","<span class=stimul>punse</span>","0","Correct"
"true","fullscreen","61","51658","0.0-2.0","vwp5gnqul4","","","",""
"true","fullscreen","0","2793621","0.0-0.0","brn9l5bj8v","","","",""
"","html-button-response","1","2794658","0.0-1.0-0.0","brn9l5bj8v","1011.3999999999069","<span class=stimul>o</span>","0","Correct"
"","html-button-response","2","2795093","0.0-1.0-0.1","brn9l5bj8v","428.9000000000233","<span class=stimul>i</span>","0","Correct"
"","html-button-response","3","2795522","0.0-1.0-0.2","brn9l5bj8v","423.4000000000233","<span class=stimul>bi</span>","0","Correct"
"","html-button-response","4","2795977","0.0-1.0-0.3","brn9l5bj8v","450.10000000009313","<span class=stimul>ul</span>","0","Correct"
"","html-button-response","5","2796406","0.0-1.0-0.4","brn9l5bj8v","425.0999999999767","<span class=stimul>til</span>","0","Correct"
"","html-button-response","6","2797974","0.0-1.0-0.5","brn9l5bj8v","1562.9000000000233","<span class=stimul>ja</span>","0","Correct"
"","html-button-response","7","2798457","0.0-1.0-0.6","brn9l5bj8v","477.30000000004657","<span class=stimul>ol</span>","0","Correct"
"","html-button-response","8","2798894","0.0-1.0-0.7","brn9l5bj8v","432.80000000004657","<span class=stimul>ata</span>","0","Correct"
"","html-button-response","9","2799394","0.0-1.0-0.8","brn9l5bj8v","496.69999999995343","<span class=stimul>dik</span>","0","Correct"
"","html-button-response","10","2799839","0.0-1.0-0.9","brn9l5bj8v","441.4000000000233","<span class=stimul>nar</span>","0","Correct"
"","html-button-response","11","2800266","0.0-1.0-0.10","brn9l5bj8v","423.5999999999767","<span class=stimul>vaf</span>","0","Correct"
"","html-button-response","12","2800729","0.0-1.0-0.11","brn9l5bj8v","458.29999999993015","<span class=stimul>zou</span>","0","Correct"
"","html-button-response","13","2801262","0.0-1.0-0.12","brn9l5bj8v","529.7999999998137","<span class=stimul>dul</span>","0","Correct"
