"success","trial_type","trial_index","time_elapsed","internal_node_id","ID","rt","stimulus","button_pressed","button_pressed_text"
"true","fullscreen","0","6312","0.0-0.0","jxd9856xq7","","","",""
"","html-button-response","1","7080","0.0-1.0","jxd9856xq7","757.6000000008207"," ","1","9"
"","html-button-response","2","7827","0.0-2.0","jxd9856xq7","742.7999999999884"," ","1","6"
"","html-button-response","3","8477","0.0-3.0","jxd9856xq7","647.6999999977124"," ","0","5"
"","html-button-response","4","9157","0.0-4.0","jxd9856xq7","676.6999999999825"," ","0","3"
"","html-button-response","5","9785","0.0-5.0","jxd9856xq7","624.7000000003027"," ","0","4"
"","html-button-response","6","10478","0.0-6.0","jxd9856xq7","690.7000000028347"," ","1","5"
"","html-button-response","7","11150","0.0-7.0","jxd9856xq7","668.3999999986554"," ","1","6"
"","html-button-response","8","11788","0.0-8.0","jxd9856xq7","635.099999999511"," ","0","8"
"","html-button-response","9","12464","0.0-9.0","jxd9856xq7","673.2999999985623"," ","1","7"
"","html-button-response","10","13126","0.0-10.0","jxd9856xq7","658.9999999996508"," ","0","2"
"","html-button-response","11","13925","0.0-11.0","jxd9856xq7","796.5999999978521"," ","0","6"
"","html-button-response","12","14579","0.0-12.0","jxd9856xq7","651.0000000016589"," ","1","4"
"","html-button-response","13","15314","0.0-13.0","jxd9856xq7","732.5000000018917"," ","0","9"
"","html-button-response","14","16041","0.0-14.0","jxd9856xq7","723.6999999986438"," ","1","8"
"","html-button-response","15","16737","0.0-15.0","jxd9856xq7","693.1999999978871"," ","1","5"
"","html-button-response","16","17414","0.0-16.0","jxd9856xq7","674.2000000012922"," ","0","7"
"","html-button-response","17","18171","0.0-17.0","jxd9856xq7","754.4999999990978"," ","1","9"
"","html-button-response","18","18934","0.0-18.0","jxd9856xq7","759.9999999983993"," ","0","7"
"","html-button-response","19","19653","0.0-19.0","jxd9856xq7","714.8999999990338"," ","0","5"
"","html-button-response","20","20348","0.0-20.0","jxd9856xq7","692.2999999987951"," ","1","9"
"","html-button-response","21","21009","0.0-21.0","jxd9856xq7","658.2000000016706"," ","1","4"
"","html-button-response","22","21657","0.0-22.0","jxd9856xq7","645.1999999990221"," ","0","8"
"","html-button-response","23","22301","0.0-23.0","jxd9856xq7","639.9999999994179"," ","1","2"
"","html-button-response","24","22923","0.0-24.0","jxd9856xq7","618.9000000013039"," ","0","4"
"","html-button-response","25","23665","0.0-25.0","jxd9856xq7","740.0000000016007"," ","1","6"
"","html-button-response","26","24303","0.0-26.0","jxd9856xq7","634.6000000012282"," ","0","8"
"","html-button-response","27","25014","0.0-27.0","jxd9856xq7","708.200000000943"," ","1","9"
"","html-button-response","28","25695","0.0-28.0","jxd9856xq7","678.1000000009954"," ","1","5"
"","html-button-response","29","26371","0.0-29.0","jxd9856xq7","672.6999999991676"," ","0","6"
"","html-button-response","30","27001","0.0-30.0","jxd9856xq7","627.3000000001048"," ","1","7"
"","html-button-response","31","27761","0.0-31.0","jxd9856xq7","757.3999999985972"," ","1","6"
"","html-button-response","32","28383","0.0-32.0","jxd9856xq7","618.8999999976659"," ","0","4"
"","html-button-response","33","29020","0.0-33.0","jxd9856xq7","634.5000000001164"," ","0","2"
"","html-button-response","34","29666","0.0-34.0","jxd9856xq7","642.8999999989173"," ","0","9"
"","html-button-response","35","30368","0.0-35.0","jxd9856xq7","698.7000000008265"," ","1","5"
"","html-button-response","36","30997","0.0-36.0","jxd9856xq7","626.299999999901"," ","0","8"
"","html-button-response","37","31594","0.0-37.0","jxd9856xq7","593.8000000023749"," ","1","3"
"","html-button-response","38","32386","0.0-38.0","jxd9856xq7","789.6999999975378"," ","1","7"
"","html-button-response","39","32972","0.0-39.0","jxd9856xq7","582.9999999987194"," ","0","9"
"","html-button-response","40","33586","0.0-40.0","jxd9856xq7","611.2000000030093"," ","1","8"
"","html-button-response","41","34183","0.0-41.0","jxd9856xq7","594.3000000006577"," ","0","6"
"","html-button-response","42","34838","0.0-42.0","jxd9856xq7","651.39999999883"," ","0","5"
"","html-button-response","43","35477","0.0-43.0","jxd9856xq7","636.2000000008265"," ","0","7"
"","html-button-response","44","36064","0.0-44.0","jxd9856xq7","584.500000000844"," ","1","5"
"","html-button-response","45","36767","0.0-45.0","jxd9856xq7","699.3000000002212"," ","1","9"
"","html-button-response","46","37332","0.0-46.0","jxd9856xq7","562.9000000008091"," ","0","4"
"","html-button-response","47","37978","0.0-47.0","jxd9856xq7","642.4999999981083"," ","0","9"
"","html-button-response","48","38677","0.0-48.0","jxd9856xq7","695.9999999999127"," ","1","8"
"","html-button-response","49","39344","0.0-49.0","jxd9856xq7","664.600000000064"," ","1","4"
"","html-button-response","50","39941","0.0-50.0","jxd9856xq7","593.8000000023749"," ","1","6"
"","html-button-response","51","40521","0.0-51.0","jxd9856xq7","576.4999999992142"," ","0","5"
"","html-button-response","52","41145","0.0-52.0","jxd9856xq7","621.6000000022177"," ","0","9"
"","html-button-response","53","41713","0.0-53.0","jxd9856xq7","565.2000000009139"," ","0","5"
"","html-button-response","54","42310","0.0-54.0","jxd9856xq7","593.8999999998487"," ","1","2"
"","html-button-response","55","42965","0.0-55.0","jxd9856xq7","651.9000000007509"," ","0","7"
"","html-button-response","56","43610","0.0-56.0","jxd9856xq7","641.9999999998254"," ","1","9"
"","html-button-response","57","44222","0.0-57.0","jxd9856xq7","608.700000000681"," ","0","8"
"","html-button-response","58","44941","0.0-58.0","jxd9856xq7","716.4999999986321"," ","0","6"
"","html-button-response","59","45581","0.0-59.0","jxd9856xq7","636.900000001333"," ","1","7"
"","html-button-response","60","46226","0.0-60.0","jxd9856xq7","641.9999999998254"," ","1","3"
"true","fullscreen","61","47230","0.0-61.0","jxd9856xq7","","","",""
"true","fullscreen","0","14223","0.0-0.0","b0kwryrj2v","","","",""
"","html-button-response","1","15107","0.0-1.0","b0kwryrj2v","864.7999999957392"," ","1","9"
"","html-button-response","2","15835","0.0-2.0","b0kwryrj2v","724.5000000038999"," ","1","6"
"","html-button-response","3","16532","0.0-3.0","b0kwryrj2v","694.100000000617"," ","0","5"
"","html-button-response","4","17206","0.0-4.0","b0kwryrj2v","671.200000004319"," ","0","3"
"","html-button-response","5","17803","0.0-5.0","b0kwryrj2v","593.4000000052038"," ","0","4"
"","html-button-response","6","18353","0.0-6.0","b0kwryrj2v","547.2000000008848"," ","1","5"
"","html-button-response","7","18895","0.0-7.0","b0kwryrj2v","538.9999999970314"," ","1","6"
"","html-button-response","8","19508","0.0-8.0","b0kwryrj2v","610.4000000050291"," ","0","8"
"","html-button-response","9","20052","0.0-9.0","b0kwryrj2v","540.3000000005704"," ","1","7"
"","html-button-response","10","20624","0.0-10.0","b0kwryrj2v","569.2999999955646"," ","0","2"
"","html-button-response","11","21338","0.0-11.0","b0kwryrj2v","711.4000000001397"," ","0","6"
"","html-button-response","12","21878","0.0-12.0","b0kwryrj2v","537.400000001071"," ","1","4"
"","html-button-response","13","22510","0.0-13.0","b0kwryrj2v","629.0000000008149"," ","0","9"
"","html-button-response","14","23052","0.0-14.0","b0kwryrj2v","538.3999999976368"," ","1","8"
"","html-button-response","15","23642","0.0-15.0","b0kwryrj2v","587.6999999964028"," ","1","5"
"","html-button-response","16","24322","0.0-16.0","b0kwryrj2v","676.2999999991735"," ","0","7"
"","html-button-response","17","24872","0.0-17.0","b0kwryrj2v","547.2000000008848"," ","1","9"
"","html-button-response","18","26092","0.0-18.0","b0kwryrj2v","1216.8999999994412"," ","0","7"
"","html-button-response","19","27685","0.0-19.0","b0kwryrj2v","1590.1000000012573"," ","0","5"
"","html-button-response","20","28456","0.0-20.0","b0kwryrj2v","768.0000000036671"," ","1","9"
"","html-button-response","21","29071","0.0-21.0","b0kwryrj2v","612.0999999984633"," ","1","4"
"","html-button-response","22","29801","0.0-22.0","b0kwryrj2v","726.3999999995576"," ","0","8"
"","html-button-response","23","30425","0.0-23.0","b0kwryrj2v","621.0999999966589"," ","1","2"
"","html-button-response","24","31090","0.0-24.0","b0kwryrj2v","662.4999999985448"," ","0","4"
"","html-button-response","25","31639","0.0-25.0","b0kwryrj2v","545.2000000004773"," ","1","6"
"","html-button-response","26","32163","0.0-26.0","b0kwryrj2v","521.8999999997322"," ","1","7"
"","html-button-response","27","33089","0.0-27.0","b0kwryrj2v","922.5000000005821"," ","1","9"
"","html-button-response","28","33770","0.0-28.0","b0kwryrj2v","678.5000000018044"," ","1","5"
"","html-button-response","29","34427","0.0-29.0","b0kwryrj2v","646.7999999949825"," ","0","6"
"","html-button-response","30","35000","0.0-30.0","b0kwryrj2v","569.8000000047614"," ","1","7"
"","html-button-response","31","35698","0.0-31.0","b0kwryrj2v","695.5000000016298"," ","1","6"
"","html-button-response","32","36338","0.0-32.0","b0kwryrj2v","636.9000000049709"," ","0","4"
"","html-button-response","33","36968","0.0-33.0","b0kwryrj2v","627.3999999975786"," ","0","2"
"","html-button-response","34","37723","0.0-34.0","b0kwryrj2v","751.6000000032363"," ","0","9"
"","html-button-response","35","38389","0.0-35.0","b0kwryrj2v","662.5999999960186"," ","1","5"
"","html-button-response","36","39267","0.0-36.0","b0kwryrj2v","874.8000000050524"," ","0","8"
"","html-button-response","37","39848","0.0-37.0","b0kwryrj2v","578.3999999985099"," ","1","3"
"","html-button-response","38","40447","0.0-38.0","b0kwryrj2v","595.6000000005588"," ","1","7"
"","html-button-response","39","41077","0.0-39.0","b0kwryrj2v","627.5000000023283"," ","0","9"
"","html-button-response","40","41612","0.0-40.0","b0kwryrj2v","531.3999999998487"," ","1","8"
"","html-button-response","41","42231","0.0-41.0","b0kwryrj2v","616.8000000034226"," ","0","6"
"","html-button-response","42","42887","0.0-42.0","b0kwryrj2v","652.8000000034808"," ","0","5"
"","html-button-response","43","44051","0.0-43.0","b0kwryrj2v","1161.100000004808"," ","0","7"
"","html-button-response","44","44722","0.0-44.0","b0kwryrj2v","667.699999998149"," ","1","5"
"","html-button-response","45","45395","0.0-45.0","b0kwryrj2v","669.8000000033062"," ","1","9"
"","html-button-response","46","46033","0.0-46.0","b0kwryrj2v","635.7000000061817"," ","0","4"
"","html-button-response","47","47279","0.0-47.0","b0kwryrj2v","1242.999999994936"," ","0","9"
"","html-button-response","48","48148","0.0-48.0","b0kwryrj2v","865.5999999973574"," ","1","8"
"","html-button-response","49","49000","0.0-49.0","b0kwryrj2v","848.3999999953085"," ","1","4"
"","html-button-response","50","49584","0.0-50.0","b0kwryrj2v","580.999999998312"," ","1","6"
"","html-button-response","51","50164","0.0-51.0","b0kwryrj2v","576.6999999977998"," ","0","5"
"","html-button-response","52","50917","0.0-52.0","b0kwryrj2v","750.3999999971711"," ","0","9"
"","html-button-response","53","51663","0.0-53.0","b0kwryrj2v","743.1999999971595"," ","0","5"
"","html-button-response","54","52312","0.0-54.0","b0kwryrj2v","645.700000000943"," ","1","2"
"","html-button-response","55","53172","0.0-55.0","b0kwryrj2v","856.8000000013853"," ","0","7"
"","html-button-response","56","54279","0.0-56.0","b0kwryrj2v","1103.4999999974389"," ","1","9"
"","html-button-response","57","54941","0.0-57.0","b0kwryrj2v","659.3999999968219"," ","0","8"
"","html-button-response","58","55621","0.0-58.0","b0kwryrj2v","677.1000000007916"," ","0","6"
"","html-button-response","59","56212","0.0-59.0","b0kwryrj2v","587.8999999986263"," ","1","7"
"","html-button-response","60","57000","0.0-60.0","b0kwryrj2v","784.6999999965192"," ","1","3"
"true","fullscreen","61","58003","0.0-61.0","b0kwryrj2v","","","",""
"true","fullscreen","0","10149","0.0-0.0","9beh804k32","","","",""
"","html-button-response","1","11383","0.0-1.0","9beh804k32","1207.6000000015483"," ","1","9"
"","html-button-response","2","12264","0.0-2.0","9beh804k32","877.7000000045518"," ","1","6"
"","html-button-response","3","13067","0.0-3.0","9beh804k32","800.199999997858"," ","0","5"
"","html-button-response","4","13804","0.0-4.0","9beh804k32","733.5999999995693"," ","0","3"
"","html-button-response","5","14507","0.0-5.0","9beh804k32","700.0000000043656"," ","0","4"
"","html-button-response","6","15168","0.0-6.0","9beh804k32","658.6000000024796"," ","1","5"
"","html-button-response","7","15905","0.0-7.0","9beh804k32","733.2000000023982"," ","1","6"
"","html-button-response","8","16598","0.0-8.0","9beh804k32","690.8000000039465"," ","0","8"
"","html-button-response","9","17317","0.0-9.0","9beh804k32","716.5000000022701"," ","1","7"
"","html-button-response","10","18078","0.0-10.0","9beh804k32","757.5999999971827"," ","0","2"
"","html-button-response","11","18847","0.0-11.0","9beh804k32","765.5999999988126"," ","0","6"
"","html-button-response","12","19533","0.0-12.0","9beh804k32","683.2999999969616"," ","1","4"
"","html-button-response","13","20359","0.0-13.0","9beh804k32","822.599999999511"," ","0","9"
"","html-button-response","14","21116","0.0-14.0","9beh804k32","754.4999999954598"," ","1","8"
"","html-button-response","15","21818","0.0-15.0","9beh804k32","698.7000000008265"," ","1","5"
"","html-button-response","16","22569","0.0-16.0","9beh804k32","747.9000000021188"," ","0","7"
"","html-button-response","17","23306","0.0-17.0","9beh804k32","733.5999999995693"," ","1","9"
"","html-button-response","18","24103","0.0-18.0","9beh804k32","794.6999999985565"," ","0","7"
"","html-button-response","19","24765","0.0-19.0","9beh804k32","659.0999999971245"," ","0","5"
"","html-button-response","20","25466","0.0-20.0","9beh804k32","698.2000000061817"," ","1","9"
"","html-button-response","21","26152","0.0-21.0","9beh804k32","682.8999999997905"," ","1","4"
"","html-button-response","22","26929","0.0-22.0","9beh804k32","774.0999999950873"," ","0","8"
"","html-button-response","23","27622","0.0-23.0","9beh804k32","690.0000000023283"," ","1","2"
"","html-button-response","24","28274","0.0-24.0","9beh804k32","649.1000000023632"," ","0","4"
"","html-button-response","25","28942","0.0-25.0","9beh804k32","665.0999999983469"," ","1","6"
"","html-button-response","26","29604","0.0-26.0","9beh804k32","659.1000000044005"," ","0","8"
"","html-button-response","27","30321","0.0-27.0","9beh804k32","714.4000000043889"," ","1","9"
"","html-button-response","28","31072","0.0-28.0","9beh804k32","747.0000000030268"," ","1","5"
"","html-button-response","29","31757","0.0-29.0","9beh804k32","681.0000000041327"," ","0","6"
"","html-button-response","30","32474","0.0-30.0","9beh804k32","714.2999999996391"," ","1","7"
"","html-button-response","31","33310","0.0-31.0","9beh804k32","831.7999999999302"," ","1","6"
"","html-button-response","32","33935","0.0-32.0","9beh804k32","622.5999999951455"," ","0","4"
"","html-button-response","33","34605","0.0-33.0","9beh804k32","667.4000000057276"," ","0","2"
"","html-button-response","34","35397","0.0-34.0","9beh804k32","788.5999999998603"," ","0","9"
"","html-button-response","35","36272","0.0-35.0","9beh804k32","871.500000001106"," ","1","5"
"","html-button-response","36","36998","0.0-36.0","9beh804k32","723.1000000028871"," ","0","8"
"","html-button-response","37","37700","0.0-37.0","9beh804k32","699.1999999954714"," ","1","3"
"","html-button-response","38","38392","0.0-38.0","9beh804k32","689.1000000032363"," ","0","6"
"","html-button-response","39","39135","0.0-39.0","9beh804k32","739.7000000055414"," ","0","9"
"","html-button-response","40","39763","0.0-40.0","9beh804k32","625.7000000041444"," ","1","8"
"","html-button-response","41","40380","0.0-41.0","9beh804k32","613.7999999991735"," ","0","6"
"","html-button-response","42","41065","0.0-42.0","9beh804k32","682.200000002922"," ","0","5"
"","html-button-response","43","41833","0.0-43.0","9beh804k32","764.6999999997206"," ","0","7"
"","html-button-response","44","42492","0.0-44.0","9beh804k32","656.699999999546"," ","1","5"
"","html-button-response","45","43276","0.0-45.0","9beh804k32","780.800000000454"," ","1","9"
"","html-button-response","46","44127","0.0-46.0","9beh804k32","847.2000000037951"," ","0","4"
"","html-button-response","47","45010","0.0-47.0","9beh804k32","879.6999999976833"," ","0","9"
"","html-button-response","48","45916","0.0-48.0","9beh804k32","902.9000000009546"," ","1","8"
"","html-button-response","49","46800","0.0-49.0","9beh804k32","881.3999999983935"," ","1","4"
"","html-button-response","50","47486","0.0-50.0","9beh804k32","681.9000000032247"," ","1","6"
"","html-button-response","51","48198","0.0-51.0","9beh804k32","708.8999999978114"," ","0","5"
"","html-button-response","52","49156","0.0-52.0","9beh804k32","955.09999999922"," ","0","9"
"","html-button-response","53","49849","0.0-53.0","9beh804k32","689.8000000001048"," ","0","5"
"","html-button-response","54","50556","0.0-54.0","9beh804k32","703.3000000010361"," ","1","2"
"","html-button-response","55","51396","0.0-55.0","9beh804k32","837.8999999986263"," ","0","7"
"","html-button-response","56","52082","0.0-56.0","9beh804k32","682.0000000006985"," ","1","9"
"","html-button-response","57","52863","0.0-57.0","9beh804k32","778.2999999981257"," ","0","8"
"","html-button-response","58","53729","0.0-58.0","9beh804k32","862.9000000000815"," ","0","6"
"","html-button-response","59","54628","0.0-59.0","9beh804k32","896.1999999955879"," ","1","7"
"","html-button-response","60","55395","0.0-60.0","9beh804k32","764.2999999952735"," ","1","3"
"true","fullscreen","61","56400","0.0-61.0","9beh804k32","","","",""
"true","fullscreen","0","11500","0.0-0.0","tv1ychurkt","","","",""
"","html-button-response","1","12437","0.0-1.0","tv1ychurkt","917.1999999962281"," ","1","9"
"","html-button-response","2","13360","0.0-2.0","tv1ychurkt","919.3999999988591"," ","1","6"
"","html-button-response","3","15329","0.0-3.0","tv1ychurkt","1965.8000000054017"," ","0","5"
"","html-button-response","4","16251","0.0-4.0","tv1ychurkt","919.6999999985565"," ","0","3"
"","html-button-response","5","17051","0.0-5.0","tv1ychurkt","796.8000000037136"," ","0","4"
"","html-button-response","6","17790","0.0-6.0","tv1ychurkt","735.4000000050291"," ","1","5"
"","html-button-response","7","18638","0.0-7.0","tv1ychurkt","845.3000000008615"," ","1","6"
"","html-button-response","8","19375","0.0-8.0","tv1ychurkt","734.1999999989639"," ","0","8"
"","html-button-response","9","20103","0.0-9.0","tv1ychurkt","724.6999999988475"," ","1","7"
"","html-button-response","10","20949","0.0-10.0","tv1ychurkt","843.6999999976251"," ","0","2"
"","html-button-response","11","21838","0.0-11.0","tv1ychurkt","886.2000000008265"," ","0","6"
"","html-button-response","12","22554","0.0-12.0","tv1ychurkt","712.8999999986263"," ","1","4"
"","html-button-response","13","23340","0.0-13.0","tv1ychurkt","783.3000000027823"," ","0","9"
"","html-button-response","14","24084","0.0-14.0","tv1ychurkt","741.0999999992782"," ","1","8"
"","html-button-response","15","24795","0.0-15.0","tv1ychurkt","707.5000000040745"," ","1","5"
"","html-button-response","16","25581","0.0-16.0","tv1ychurkt","783.4999999977299"," ","0","7"
"","html-button-response","17","26430","0.0-17.0","tv1ychurkt","846.3000000047032"," ","1","9"
"","html-button-response","18","27213","0.0-18.0","tv1ychurkt","779.6999999991385"," ","0","7"
"","html-button-response","19","27980","0.0-19.0","tv1ychurkt","763.8000000006286"," ","0","5"
"","html-button-response","20","28879","0.0-20.0","tv1ychurkt","895.7999999984168"," ","1","9"
"","html-button-response","21","29581","0.0-21.0","tv1ychurkt","699.7000000046683"," ","1","4"
"","html-button-response","22","30349","0.0-22.0","tv1ychurkt","764.4000000000233"," ","0","8"
"","html-button-response","23","31115","0.0-23.0","tv1ychurkt","763.3999999961816"," ","1","2"
"","html-button-response","24","31890","0.0-24.0","tv1ychurkt","772.1000000019558"," ","0","4"
"","html-button-response","25","32739","0.0-25.0","tv1ychurkt","846.1000000024796"," ","1","6"
"","html-button-response","26","33458","0.0-26.0","tv1ychurkt","715.6000000031781"," ","0","8"
"","html-button-response","27","34224","0.0-27.0","tv1ychurkt","763.1000000037602"," ","1","9"
"","html-button-response","28","35181","0.0-28.0","tv1ychurkt","953.6999999982072"," ","1","5"
"","html-button-response","29","35913","0.0-29.0","tv1ychurkt","721.9000000040978"," ","0","6"
"","html-button-response","30","36647","0.0-30.0","tv1ychurkt","731.3999999969383"," ","1","7"
"","html-button-response","31","37658","0.0-31.0","tv1ychurkt","1007.499999999709"," ","1","6"
"","html-button-response","32","38459","0.0-32.0","tv1ychurkt","797.7000000028056"," ","0","4"
"","html-button-response","33","39290","0.0-33.0","tv1ychurkt","828.2000000035623"," ","0","2"
"","html-button-response","34","40065","0.0-34.0","tv1ychurkt","771.8999999997322"," ","1","8"
"","html-button-response","35","41759","0.0-35.0","tv1ychurkt","1690.999999998894"," ","1","5"
"","html-button-response","36","42552","0.0-36.0","tv1ychurkt","790.1000000056229"," ","0","8"
"","html-button-response","37","43352","0.0-37.0","tv1ychurkt","796.4000000065425"," ","1","3"
"","html-button-response","38","44193","0.0-38.0","tv1ychurkt","838.1000000008498"," ","0","6"
"","html-button-response","39","45115","0.0-39.0","tv1ychurkt","919.6999999985565"," ","0","9"
"","html-button-response","40","45925","0.0-40.0","tv1ychurkt","807.0000000006985"," ","1","8"
"","html-button-response","41","46751","0.0-41.0","tv1ychurkt","822.599999999511"," ","0","6"
"","html-button-response","42","47583","0.0-42.0","tv1ychurkt","828.800000002957"," ","0","5"
"","html-button-response","43","48727","0.0-43.0","tv1ychurkt","1141.5000000051805"," ","0","7"
"","html-button-response","44","49438","0.0-44.0","tv1ychurkt","707.300000001851"," ","1","5"
"","html-button-response","45","50498","0.0-45.0","tv1ychurkt","1057.199999995646"," ","1","9"
"","html-button-response","46","51291","0.0-46.0","tv1ychurkt","789.4999999989523"," ","0","4"
"","html-button-response","47","52402","0.0-47.0","tv1ychurkt","1108.0999999976484"," ","0","9"
"","html-button-response","48","53177","0.0-48.0","tv1ychurkt","772.4999999991269"," ","1","8"
"","html-button-response","49","54438","0.0-49.0","tv1ychurkt","1258.1000000063796"," ","1","4"
"","html-button-response","50","55154","0.0-50.0","tv1ychurkt","712.4000000039814"," ","1","6"
"","html-button-response","51","55847","0.0-51.0","tv1ychurkt","689.9000000048545"," ","0","5"
"","html-button-response","52","56973","0.0-52.0","tv1ychurkt","1122.9000000021188"," ","0","9"
"","html-button-response","53","57879","0.0-53.0","tv1ychurkt","902.9999999984284"," ","0","5"
"","html-button-response","54","58613","0.0-54.0","tv1ychurkt","731.099999997241"," ","1","2"
"","html-button-response","55","59430","0.0-55.0","tv1ychurkt","813.6999999987893"," ","0","7"
"","html-button-response","56","60139","0.0-56.0","tv1ychurkt","706.5999999977066"," ","1","9"
"","html-button-response","57","60842","0.0-57.0","tv1ychurkt","700.1999999993131"," ","0","8"
"","html-button-response","58","61799","0.0-58.0","tv1ychurkt","953.9000000004307"," ","0","6"
"","html-button-response","59","62916","0.0-59.0","tv1ychurkt","1113.9000000039232"," ","1","7"
"","html-button-response","60","63823","0.0-60.0","tv1ychurkt","903.3999999955995"," ","1","3"
"true","fullscreen","61","64826","0.0-61.0","tv1ychurkt","","","",""
"true","fullscreen","0","13437","0.0-0.0","kefszyv1jc","","","",""
"","html-button-response","1","14481","0.0-1.0","kefszyv1jc","1024.0000000012515"," ","1","9"
"","html-button-response","2","15225","0.0-2.0","kefszyv1jc","739.6999999982654"," ","1","6"
"","html-button-response","3","15996","0.0-3.0","kefszyv1jc","767.4000000006345"," ","0","5"
"","html-button-response","4","16702","0.0-4.0","kefszyv1jc","703.1999999999243"," ","0","3"
"","html-button-response","5","17341","0.0-5.0","kefszyv1jc","635.3999999992084"," ","0","4"
"","html-button-response","6","17929","0.0-6.0","kefszyv1jc","583.8000000003376"," ","1","5"
"","html-button-response","7","18624","0.0-7.0","kefszyv1jc","692.1000000002095"," ","1","6"
"","html-button-response","8","19201","0.0-8.0","kefszyv1jc","573.5999999997148"," ","0","8"
"","html-button-response","9","19788","0.0-9.0","kefszyv1jc","582.8000000001339"," ","1","7"
"","html-button-response","10","20417","0.0-10.0","kefszyv1jc","626.0999999976775"," ","0","2"
"","html-button-response","11","21110","0.0-11.0","kefszyv1jc","689.8000000001048"," ","0","6"
"","html-button-response","12","21706","0.0-12.0","kefszyv1jc","592.4999999988358"," ","1","4"
"","html-button-response","13","22282","0.0-13.0","kefszyv1jc","573.3000000000175"," ","0","9"
"","html-button-response","14","22919","0.0-14.0","kefszyv1jc","632.900000000518"," ","1","8"
"","html-button-response","15","23514","0.0-15.0","kefszyv1jc","592.0999999980268"," ","1","5"
"","html-button-response","16","24109","0.0-16.0","kefszyv1jc","591.8000000019674"," ","0","7"
"","html-button-response","17","24711","0.0-17.0","kefszyv1jc","599.0999999994528"," ","1","9"
"","html-button-response","18","25281","0.0-18.0","kefszyv1jc","566.899999997986"," ","0","7"
"","html-button-response","19","25844","0.0-19.0","kefszyv1jc","558.8999999999942"," ","0","5"
"","html-button-response","20","26395","0.0-20.0","kefszyv1jc","547.3999999994703"," ","1","9"
"","html-button-response","21","27015","0.0-21.0","kefszyv1jc","616.8999999972584"," ","1","4"
"","html-button-response","22","27608","0.0-22.0","kefszyv1jc","590.0000000001455"," ","0","8"
"","html-button-response","23","28211","0.0-23.0","kefszyv1jc","599.900000001071"," ","1","2"
"","html-button-response","24","28771","0.0-24.0","kefszyv1jc","556.5999999998894"," ","0","4"
"","html-button-response","25","29373","0.0-25.0","kefszyv1jc","599.0999999994528"," ","1","6"
"","html-button-response","26","30198","0.0-26.0","kefszyv1jc","821.8000000015309"," ","0","8"
"","html-button-response","27","30760","0.0-27.0","kefszyv1jc","559.1000000022177"," ","1","9"
"","html-button-response","28","31411","0.0-28.0","kefszyv1jc","647.0999999983178"," ","1","5"
"","html-button-response","29","31979","0.0-29.0","kefszyv1jc","565.3000000020256"," ","0","6"
"","html-button-response","30","32532","0.0-30.0","kefszyv1jc","549.4999999973516"," ","1","7"
"","html-button-response","31","33315","0.0-31.0","kefszyv1jc","779.2000000008557"," ","1","6"
"","html-button-response","32","33924","0.0-32.0","kefszyv1jc","606.4000000005763"," ","0","4"
"","html-button-response","33","34592","0.0-33.0","kefszyv1jc","664.8000000022876"," ","0","2"
"","html-button-response","34","35328","0.0-34.0","kefszyv1jc","732.2999999996682"," ","0","9"
"","html-button-response","35","35976","0.0-35.0","kefszyv1jc","644.9000000029628"," ","1","5"
"","html-button-response","36","36717","0.0-36.0","kefszyv1jc","738.6000000005879"," ","0","8"
"","html-button-response","37","37303","0.0-37.0","kefszyv1jc","582.6999999990221"," ","1","3"
"","html-button-response","38","37937","0.0-38.0","kefszyv1jc","630.1000000021304"," ","1","7"
"","html-button-response","39","38524","0.0-39.0","kefszyv1jc","583.6999999992258"," ","0","9"
"","html-button-response","40","39107","0.0-40.0","kefszyv1jc","580.3000000014435"," ","1","8"
"","html-button-response","41","39735","0.0-41.0","kefszyv1jc","624.5999999991909"," ","0","6"
"","html-button-response","42","40426","0.0-42.0","kefszyv1jc","687.9000000008091"," ","0","5"
"","html-button-response","43","41012","0.0-43.0","kefszyv1jc","572.199999998702"," ","0","7"
"","html-button-response","44","41597","0.0-44.0","kefszyv1jc","581.2000000005355"," ","1","5"
"","html-button-response","45","42527","0.0-45.0","kefszyv1jc","927.7000000001863"," ","1","9"
"","html-button-response","46","43081","0.0-46.0","kefszyv1jc","550.6999999997788"," ","0","4"
"","html-button-response","47","43697","0.0-47.0","kefszyv1jc","612.3999999981606"," ","0","9"
"","html-button-response","48","44341","0.0-48.0","kefszyv1jc","640.6999999999243"," ","1","8"
"","html-button-response","49","44934","0.0-49.0","kefszyv1jc","589.6000000029744"," ","1","4"
"","html-button-response","50","45525","0.0-50.0","kefszyv1jc","588.4999999980209"," ","1","6"
"","html-button-response","51","46071","0.0-51.0","kefszyv1jc","542.2999999973399"," ","0","5"
"","html-button-response","52","46836","0.0-52.0","kefszyv1jc","761.5000000005239"," ","0","9"
"","html-button-response","53","48113","0.0-53.0","kefszyv1jc","1273.800000002666"," ","0","5"
"","html-button-response","54","48657","0.0-54.0","kefszyv1jc","541.7000000015832"," ","1","2"
"","html-button-response","55","49440","0.0-55.0","kefszyv1jc","779.8000000002503"," ","0","7"
"","html-button-response","56","50010","0.0-56.0","kefszyv1jc","565.8999999977823"," ","1","9"
"","html-button-response","57","50592","0.0-57.0","kefszyv1jc","578.799999999319"," ","0","8"
"","html-button-response","58","51068","0.0-58.0","kefszyv1jc","473.5000000000582"," ","1","5"
"","html-button-response","59","51795","0.0-59.0","kefszyv1jc","723.7000000022817"," ","1","7"
"","html-button-response","60","52413","0.0-60.0","kefszyv1jc","614.1999999999825"," ","1","3"
"true","fullscreen","61","53416","0.0-61.0","kefszyv1jc","","","",""
"true","fullscreen","0","8884","0.0-0.0","ytcluxpl10","","","",""
"","html-button-response","1","9931","0.0-1.0","ytcluxpl10","1028.9000000011583"," ","1","9"
"","html-button-response","2","10711","0.0-2.0","ytcluxpl10","775.8999999969092"," ","1","6"
"","html-button-response","3","11349","0.0-3.0","ytcluxpl10","634.0000000018335"," ","0","5"
"","html-button-response","4","12028","0.0-4.0","ytcluxpl10","675.4999999975553"," ","0","3"
"","html-button-response","5","12659","0.0-5.0","ytcluxpl10","627.4999999986903"," ","0","4"
"","html-button-response","6","13183","0.0-6.0","ytcluxpl10","520.8999999995285"," ","1","5"
"","html-button-response","7","13822","0.0-7.0","ytcluxpl10","635.3999999992084"," ","1","6"
"","html-button-response","8","14369","0.0-8.0","ytcluxpl10","543.0999999989581"," ","0","8"
"","html-button-response","9","15115","0.0-9.0","ytcluxpl10","742.9000000011001"," ","1","7"
"","html-button-response","10","15711","0.0-10.0","ytcluxpl10","592.9000000032829"," ","0","2"
"","html-button-response","11","16390","0.0-11.0","ytcluxpl10","675.8000000008906"," ","0","6"
"","html-button-response","12","16991","0.0-12.0","ytcluxpl10","596.5000000032887"," ","1","4"
"","html-button-response","13","17563","0.0-13.0","ytcluxpl10","568.9000000020314"," ","0","9"
"","html-button-response","14","18103","0.0-14.0","ytcluxpl10","536.0000000000582"," ","1","8"
"","html-button-response","15","18685","0.0-15.0","ytcluxpl10","578.6999999982072"," ","1","5"
"","html-button-response","16","19333","0.0-16.0","ytcluxpl10","645.4000000012456"," ","0","7"
"","html-button-response","17","19898","0.0-17.0","ytcluxpl10","561.7999999994936"," ","1","9"
"","html-button-response","18","20611","0.0-18.0","ytcluxpl10","709.6999999994296"," ","0","7"
"","html-button-response","19","21223","0.0-19.0","ytcluxpl10","608.4999999984575"," ","0","5"
"","html-button-response","20","21876","0.0-20.0","ytcluxpl10","649.7000000017579"," ","1","9"
"","html-button-response","21","22475","0.0-21.0","ytcluxpl10","595.499999999447"," ","1","4"
"","html-button-response","22","23144","0.0-22.0","ytcluxpl10","666.1999999996624"," ","0","8"
"","html-button-response","23","23691","0.0-23.0","ytcluxpl10","543.7000000019907"," ","1","2"
"","html-button-response","24","24240","0.0-24.0","ytcluxpl10","546.0000000020955"," ","0","4"
"","html-button-response","25","24931","0.0-25.0","ytcluxpl10","687.6000000011118"," ","1","6"
"","html-button-response","26","25493","0.0-26.0","ytcluxpl10","558.4999999991851"," ","0","8"
"","html-button-response","27","26074","0.0-27.0","ytcluxpl10","577.8000000027532"," ","1","9"
"","html-button-response","28","26674","0.0-28.0","ytcluxpl10","596.3000000010652"," ","1","5"
"","html-button-response","29","27277","0.0-29.0","ytcluxpl10","600.3000000018801"," ","0","6"
"","html-button-response","30","27867","0.0-30.0","ytcluxpl10","586.2999999990279"," ","1","7"
"","html-button-response","31","28693","0.0-31.0","ytcluxpl10","823.4000000011292"," ","1","6"
"","html-button-response","32","29293","0.0-32.0","ytcluxpl10","596.3000000010652"," ","0","4"
"","html-button-response","33","29977","0.0-33.0","ytcluxpl10","680.900000003021"," ","0","2"
"","html-button-response","34","30892","0.0-34.0","ytcluxpl10","911.8000000016764"," ","0","9"
"","html-button-response","35","31515","0.0-35.0","ytcluxpl10","620.2999999986787"," ","1","5"
"","html-button-response","36","32095","0.0-36.0","ytcluxpl10","576.0999999984051"," ","0","8"
"","html-button-response","37","32601","0.0-37.0","ytcluxpl10","503.19999999919673"," ","1","3"
"","html-button-response","38","33492","0.0-38.0","ytcluxpl10","887.4999999970896"," ","1","7"
"","html-button-response","39","34098","0.0-39.0","ytcluxpl10","603.2000000013795"," ","0","9"
"","html-button-response","40","34663","0.0-40.0","ytcluxpl10","561.6999999983818"," ","1","8"
"","html-button-response","41","35179","0.0-41.0","ytcluxpl10","512.3999999996158"," ","0","6"
"","html-button-response","42","35777","0.0-42.0","ytcluxpl10","594.3000000006577"," ","0","5"
"","html-button-response","43","36377","0.0-43.0","ytcluxpl10","595.3999999983353"," ","0","7"
"","html-button-response","44","36908","0.0-44.0","ytcluxpl10","527.299999997922"," ","1","5"
"","html-button-response","45","37602","0.0-45.0","ytcluxpl10","691.3999999997031"," ","1","9"
"","html-button-response","46","38177","0.0-46.0","ytcluxpl10","571.5999999993073"," ","0","4"
"","html-button-response","47","38847","0.0-47.0","ytcluxpl10","666.9000000001688"," ","0","9"
"","html-button-response","48","39446","0.0-48.0","ytcluxpl10","595.3000000008615"," ","1","8"
"","html-button-response","49","40139","0.0-49.0","ytcluxpl10","690.3000000020256"," ","1","4"
"","html-button-response","50","40769","0.0-50.0","ytcluxpl10","626.4999999984866"," ","1","6"
"","html-button-response","51","41359","0.0-51.0","ytcluxpl10","586.5999999987253"," ","0","5"
"","html-button-response","52","42120","0.0-52.0","ytcluxpl10","757.9999999979918"," ","0","9"
"","html-button-response","53","42866","0.0-53.0","ytcluxpl10","742.6000000014028"," ","0","5"
"","html-button-response","54","43371","0.0-54.0","ytcluxpl10","502.00000000040745"," ","1","2"
"","html-button-response","55","43870","0.0-55.0","ytcluxpl10","495.599999998376"," ","0","7"
"","html-button-response","56","44403","0.0-56.0","ytcluxpl10","528.8000000000466"," ","1","9"
"","html-button-response","57","44934","0.0-57.0","ytcluxpl10","528.4999999967113"," ","0","8"
"","html-button-response","58","45426","0.0-58.0","ytcluxpl10","488.100000002305"," ","1","5"
"","html-button-response","59","45860","0.0-59.0","ytcluxpl10","431.00000000049477"," ","1","7"
"","html-button-response","60","46751","0.0-60.0","ytcluxpl10","887.0000000024447"," ","1","3"
"true","fullscreen","61","47754","0.0-61.0","ytcluxpl10","","","",""
"true","fullscreen","0","12815","0.0-0.0","7ufqgzowuw","","","",""
"","html-button-response","1","14520","0.0-1.0","7ufqgzowuw","1680.6000000000276"," ","1","9"
"","html-button-response","2","15625","0.0-2.0","7ufqgzowuw","1100.900000000025"," ","1","6"
"","html-button-response","3","16502","0.0-3.0","7ufqgzowuw","873.6999999999825"," ","0","5"
"","html-button-response","4","17435","0.0-4.0","7ufqgzowuw","928.7000000000517"," ","0","3"
"","html-button-response","5","18287","0.0-5.0","7ufqgzowuw","848.9000000000706"," ","0","4"
"","html-button-response","6","19084","0.0-6.0","7ufqgzowuw","793.0000000000036"," ","1","5"
"","html-button-response","7","19855","0.0-7.0","7ufqgzowuw","767.2999999999774"," ","1","6"
"","html-button-response","8","20656","0.0-8.0","7ufqgzowuw","797.5000000000146"," ","0","8"
"","html-button-response","9","21411","0.0-9.0","7ufqgzowuw","752.1000000000422"," ","1","7"
"","html-button-response","10","22222","0.0-10.0","7ufqgzowuw","807.0999999999913"," ","0","2"
"","html-button-response","11","23235","0.0-11.0","7ufqgzowuw","1009.8999999999032"," ","0","6"
"","html-button-response","12","23967","0.0-12.0","7ufqgzowuw","728.5999999999149"," ","1","4"
"","html-button-response","13","24760","0.0-13.0","7ufqgzowuw","790.0999999999403"," ","0","9"
"","html-button-response","14","25541","0.0-14.0","7ufqgzowuw","777.4999999999163"," ","1","8"
"","html-button-response","15","26290","0.0-15.0","7ufqgzowuw","745.4999999999927"," ","1","5"
"","html-button-response","16","27049","0.0-16.0","7ufqgzowuw","755.5999999999585"," ","0","7"
"","html-button-response","17","27972","0.0-17.0","7ufqgzowuw","920.3999999999724"," ","1","9"
"","html-button-response","18","28931","0.0-18.0","7ufqgzowuw","955.4000000000524"," ","0","7"
"","html-button-response","19","29718","0.0-19.0","7ufqgzowuw","784.0999999999694"," ","0","5"
"","html-button-response","20","30457","0.0-20.0","7ufqgzowuw","735.7000000000662"," ","1","9"
"","html-button-response","21","31210","0.0-21.0","7ufqgzowuw","749.6999999999607"," ","1","4"
"","html-button-response","22","32093","0.0-22.0","7ufqgzowuw","879.2999999999447"," ","0","8"
"","html-button-response","23","32847","0.0-23.0","7ufqgzowuw","750.5999999999622"," ","1","2"
"","html-button-response","24","33617","0.0-24.0","7ufqgzowuw","767.3999999999578"," ","0","4"
"","html-button-response","25","34420","0.0-25.0","7ufqgzowuw","799.6000000000495"," ","1","6"
"","html-button-response","26","35499","0.0-26.0","7ufqgzowuw","1075.600000000013"," ","0","8"
"","html-button-response","27","36300","0.0-27.0","7ufqgzowuw","798.400000000016"," ","1","9"
"","html-button-response","28","37127","0.0-28.0","7ufqgzowuw","823.200000000048"," ","1","5"
"","html-button-response","29","37841","0.0-29.0","7ufqgzowuw","710.799999999952"," ","0","6"
"","html-button-response","30","38603","0.0-30.0","7ufqgzowuw","759.0000000000146"," ","1","7"
"","html-button-response","31","39414","0.0-31.0","7ufqgzowuw","807.6999999999534"," ","1","6"
"","html-button-response","32","40135","0.0-32.0","7ufqgzowuw","717.9999999999636"," ","0","4"
"","html-button-response","33","40992","0.0-33.0","7ufqgzowuw","853.7000000000044"," ","0","2"
"","html-button-response","34","41845","0.0-34.0","7ufqgzowuw","849.3000000000902"," ","0","9"
"","html-button-response","35","42614","0.0-35.0","7ufqgzowuw","766.1000000000495"," ","1","5"
"","html-button-response","36","43414","0.0-36.0","7ufqgzowuw","797.0999999999985"," ","0","8"
"","html-button-response","37","44110","0.0-37.0","7ufqgzowuw","692.9000000000087"," ","1","3"
"","html-button-response","38","44961","0.0-38.0","7ufqgzowuw","847.6000000000568"," ","1","7"
"","html-button-response","39","45796","0.0-39.0","7ufqgzowuw","831.3999999999141"," ","0","9"
"","html-button-response","40","46563","0.0-40.0","7ufqgzowuw","764.3000000000466"," ","1","8"
"","html-button-response","41","47285","0.0-41.0","7ufqgzowuw","718.2000000000262"," ","0","6"
"","html-button-response","42","48054","0.0-42.0","7ufqgzowuw","765.8999999999869"," ","0","5"
"","html-button-response","43","48832","0.0-43.0","7ufqgzowuw","764.8000000000393"," ","0","7"
"","html-button-response","44","49562","0.0-44.0","7ufqgzowuw","727.0000000000873"," ","1","5"
"","html-button-response","45","50280","0.0-45.0","7ufqgzowuw","714.2000000000044"," ","1","9"
"","html-button-response","46","51001","0.0-46.0","7ufqgzowuw","717.9999999999636"," ","0","4"
"","html-button-response","47","51722","0.0-47.0","7ufqgzowuw","717.8000000000102"," ","0","9"
"","html-button-response","48","52444","0.0-48.0","7ufqgzowuw","718.7000000000189"," ","1","8"
"","html-button-response","49","53299","0.0-49.0","7ufqgzowuw","852.0999999999476"," ","1","4"
"","html-button-response","50","54029","0.0-50.0","7ufqgzowuw","726.6999999999389"," ","1","6"
"","html-button-response","51","54750","0.0-51.0","7ufqgzowuw","717.3000000000247"," ","0","5"
"","html-button-response","52","55576","0.0-52.0","7ufqgzowuw","823.200000000048"," ","0","9"
"","html-button-response","53","56402","0.0-53.0","7ufqgzowuw","822.1999999999462"," ","0","5"
"","html-button-response","54","57107","0.0-54.0","7ufqgzowuw","701.6999999999607"," ","1","2"
"","html-button-response","55","57835","0.0-55.0","7ufqgzowuw","724.6999999999898"," ","0","7"
"","html-button-response","56","58570","0.0-56.0","7ufqgzowuw","732.3999999999869"," ","1","9"
"","html-button-response","57","59292","0.0-57.0","7ufqgzowuw","718.2000000000262"," ","0","8"
"","html-button-response","58","60191","0.0-58.0","7ufqgzowuw","895.6999999999243"," ","0","6"
"","html-button-response","59","60901","0.0-59.0","7ufqgzowuw","707.1000000000859"," ","1","7"
"","html-button-response","60","61639","0.0-60.0","7ufqgzowuw","734.6999999999753"," ","1","3"
"true","fullscreen","61","62642","0.0-61.0","7ufqgzowuw","","","",""
"true","fullscreen","0","18627","0.0-0.0","jss8cdk21f","","","",""
"","html-button-response","1","19782","0.0-1.0","jss8cdk21f","1136.3000000001193"," ","1","9"
"","html-button-response","2","20701","0.0-2.0","jss8cdk21f","915.1000000001659"," ","1","6"
"","html-button-response","3","21662","0.0-3.0","jss8cdk21f","956.9999999994252"," ","0","5"
"","html-button-response","4","22598","0.0-4.0","jss8cdk21f","932.7999999995882"," ","0","3"
"","html-button-response","5","23497","0.0-5.0","jss8cdk21f","894.6999999998297"," ","0","4"
"","html-button-response","6","24362","0.0-6.0","jss8cdk21f","860.7999999994718"," ","1","5"
"","html-button-response","7","25216","0.0-7.0","jss8cdk21f","849.9000000001615"," ","1","6"
"","html-button-response","8","26089","0.0-8.0","jss8cdk21f","869.5999999999913"," ","0","8"
"","html-button-response","9","27051","0.0-9.0","jss8cdk21f","957.6000000006388"," ","1","7"
"","html-button-response","10","27957","0.0-10.0","jss8cdk21f","902.0999999993364"," ","0","2"
"","html-button-response","11","28893","0.0-11.0","jss8cdk21f","932.3000000003958"," ","0","6"
"","html-button-response","12","29799","0.0-12.0","jss8cdk21f","902.1000000002459"," ","1","4"
"","html-button-response","13","30703","0.0-13.0","jss8cdk21f","900.6000000008498"," ","0","9"
"","html-button-response","14","31614","0.0-14.0","jss8cdk21f","907.4000000000524"," ","1","8"
"","html-button-response","15","32495","0.0-15.0","jss8cdk21f","876.6999999998006"," ","1","5"
"","html-button-response","16","33430","0.0-16.0","jss8cdk21f","932.2999999994863"," ","0","7"
"","html-button-response","17","34348","0.0-17.0","jss8cdk21f","913.5999999998603"," ","1","9"
"","html-button-response","18","35225","0.0-18.0","jss8cdk21f","874.0999999999985"," ","0","7"
"","html-button-response","19","36097","0.0-19.0","jss8cdk21f","868.0000000003929"," ","0","5"
"","html-button-response","20","36975","0.0-20.0","jss8cdk21f","874.7999999995955"," ","1","9"
"","html-button-response","21","37890","0.0-21.0","jss8cdk21f","910.7999999996537"," ","1","4"
"","html-button-response","22","38800","0.0-22.0","jss8cdk21f","906.2999999996464"," ","0","8"
"","html-button-response","23","39589","0.0-23.0","jss8cdk21f","786.2000000004628"," ","1","2"
"","html-button-response","24","40459","0.0-24.0","jss8cdk21f","865.6999999993786"," ","0","4"
"","html-button-response","25","41358","0.0-25.0","jss8cdk21f","895.0999999997293"," ","1","6"
"","html-button-response","26","42362","0.0-26.0","jss8cdk21f","1001.0000000002037"," ","0","8"
"","html-button-response","27","43252","0.0-27.0","jss8cdk21f","885.5999999996129"," ","1","9"
"","html-button-response","28","44254","0.0-28.0","jss8cdk21f","998.700000000099"," ","1","5"
"","html-button-response","29","45106","0.0-29.0","jss8cdk21f","848.1000000001586"," ","0","6"
"","html-button-response","30","46008","0.0-30.0","jss8cdk21f","899.000000000342"," ","1","7"
"","html-button-response","31","47000","0.0-31.0","jss8cdk21f","987.7000000005864"," ","1","6"
"","html-button-response","32","47903","0.0-32.0","jss8cdk21f","899.9000000003434"," ","0","4"
"","html-button-response","33","48748","0.0-33.0","jss8cdk21f","841.1999999998443"," ","0","2"
"","html-button-response","34","49677","0.0-34.0","jss8cdk21f","925.600000000486"," ","0","9"
"","html-button-response","35","50577","0.0-35.0","jss8cdk21f","895.900000000438"," ","1","5"
"","html-button-response","36","51450","0.0-36.0","jss8cdk21f","869.7000000001935"," ","0","8"
"","html-button-response","37","52309","0.0-37.0","jss8cdk21f","855.7999999993626"," ","1","3"
"","html-button-response","38","53254","0.0-38.0","jss8cdk21f","940.599999999904"," ","1","7"
"","html-button-response","39","54124","0.0-39.0","jss8cdk21f","866.6000000002896"," ","0","9"
"","html-button-response","40","54921","0.0-40.0","jss8cdk21f","793.7000000001717"," ","1","8"
"","html-button-response","41","55835","0.0-41.0","jss8cdk21f","909.9999999998545"," ","0","6"
"","html-button-response","42","56719","0.0-42.0","jss8cdk21f","880.1000000003114"," ","0","5"
"","html-button-response","43","57642","0.0-43.0","jss8cdk21f","917.8000000001703"," ","0","7"
"","html-button-response","44","58469","0.0-44.0","jss8cdk21f","822.599999999511"," ","1","5"
"","html-button-response","45","59316","0.0-45.0","jss8cdk21f","843.4999999999491"," ","1","9"
"","html-button-response","46","60154","0.0-46.0","jss8cdk21f","833.9999999998327"," ","0","4"
"","html-button-response","47","61041","0.0-47.0","jss8cdk21f","883.8999999998123"," ","0","9"
"","html-button-response","48","61880","0.0-48.0","jss8cdk21f","835.6000000003405"," ","1","8"
"","html-button-response","49","62725","0.0-49.0","jss8cdk21f","840.7999999999447"," ","1","4"
"","html-button-response","50","63500","0.0-50.0","jss8cdk21f","772.1999999994296"," ","1","6"
"","html-button-response","51","64339","0.0-51.0","jss8cdk21f","834.6999999994296"," ","0","5"
"","html-button-response","52","65203","0.0-52.0","jss8cdk21f","860.4000000004817"," ","0","9"
"","html-button-response","53","66071","0.0-53.0","jss8cdk21f","865.0999999999913"," ","0","5"
"","html-button-response","54","66876","0.0-54.0","jss8cdk21f","800.9999999994761"," ","1","2"
"","html-button-response","55","67746","0.0-55.0","jss8cdk21f","866.2999999996973"," ","0","7"
"","html-button-response","56","68584","0.0-56.0","jss8cdk21f","834.2000000002299"," ","1","9"
"","html-button-response","57","69445","0.0-57.0","jss8cdk21f","857.0000000008731"," ","0","8"
"","html-button-response","58","70323","0.0-58.0","jss8cdk21f","875.1999999994878"," ","0","6"
"","html-button-response","59","71177","0.0-59.0","jss8cdk21f","850.4000000002707"," ","1","7"
"","html-button-response","60","71962","0.0-60.0","jss8cdk21f","780.6000000000349"," ","1","3"
"true","fullscreen","61","72965","0.0-61.0","jss8cdk21f","","","",""
"true","fullscreen","0","8630","0.0-0.0","jw0kwnz6ay","","","",""
"","html-button-response","1","10114","0.0-1.0","jw0kwnz6ay","1471.0999999997512"," ","1","9"
"","html-button-response","2","11354","0.0-2.0","jw0kwnz6ay","1234.599999999773"," ","1","6"
"","html-button-response","3","12489","0.0-3.0","jw0kwnz6ay","1131.800000000112"," ","0","5"
"","html-button-response","4","13706","0.0-4.0","jw0kwnz6ay","1212.999999999738"," ","0","3"
"","html-button-response","5","14645","0.0-5.0","jw0kwnz6ay","935.5999999997948"," ","0","4"
"","html-button-response","6","15617","0.0-6.0","jw0kwnz6ay","969.1000000002532"," ","1","5"
"","html-button-response","7","16786","0.0-7.0","jw0kwnz6ay","1164.6999999993568"," ","1","6"
"","html-button-response","8","17783","0.0-8.0","jw0kwnz6ay","993.8000000001921"," ","0","8"
"","html-button-response","9","18818","0.0-9.0","jw0kwnz6ay","1031.5999999993437"," ","1","7"
"","html-button-response","10","19821","0.0-10.0","jw0kwnz6ay","999.8999999997977"," ","0","2"
"","html-button-response","11","20869","0.0-11.0","jw0kwnz6ay","1043.7999999994645"," ","0","6"
"","html-button-response","12","21928","0.0-12.0","jw0kwnz6ay","1056.5999999998894"," ","1","4"
"","html-button-response","13","23110","0.0-13.0","jw0kwnz6ay","1178.299999999581"," ","0","9"
"","html-button-response","14","24312","0.0-14.0","jw0kwnz6ay","1199.399999999514"," ","1","8"
"","html-button-response","15","25382","0.0-15.0","jw0kwnz6ay","1066.4999999999054"," ","1","5"
"","html-button-response","16","26386","0.0-16.0","jw0kwnz6ay","1001.100000000406"," ","0","7"
"","html-button-response","17","33844","0.0-17.0","jw0kwnz6ay","7453.899999999521"," ","1","9"
"","html-button-response","18","35255","0.0-18.0","jw0kwnz6ay","1408.8000000001557"," ","0","7"
"","html-button-response","19","36128","0.0-19.0","jw0kwnz6ay","869.5999999999913"," ","0","5"
"","html-button-response","20","37098","0.0-20.0","jw0kwnz6ay","966.5999999997439"," ","1","9"
"","html-button-response","21","37898","0.0-21.0","jw0kwnz6ay","796.1999999997715"," ","1","4"
"","html-button-response","22","38754","0.0-22.0","jw0kwnz6ay","852.8999999998632"," ","0","8"
"","html-button-response","23","40076","0.0-23.0","jw0kwnz6ay","1319.1999999999098"," ","1","2"
"","html-button-response","24","41104","0.0-24.0","jw0kwnz6ay","1024.8000000001412"," ","0","4"
"","html-button-response","25","42570","0.0-25.0","jw0kwnz6ay","1462.399999999434"," ","1","6"
"","html-button-response","26","43811","0.0-26.0","jw0kwnz6ay","1237.7999999998792"," ","0","8"
"","html-button-response","27","44863","0.0-27.0","jw0kwnz6ay","1049.3999999998778"," ","1","9"
"","html-button-response","28","45961","0.0-28.0","jw0kwnz6ay","1094.000000000051"," ","1","5"
"","html-button-response","29","46866","0.0-29.0","jw0kwnz6ay","899.9000000003434"," ","0","6"
"","html-button-response","30","47886","0.0-30.0","jw0kwnz6ay","1016.4999999997235"," ","1","7"
"","html-button-response","31","48926","0.0-31.0","jw0kwnz6ay","1036.6999999996551"," ","1","6"
"","html-button-response","32","50101","0.0-32.0","jw0kwnz6ay","1171.8000000000757"," ","0","4"
"","html-button-response","33","50996","0.0-33.0","jw0kwnz6ay","891.9999999998254"," ","0","2"
"","html-button-response","34","51944","0.0-34.0","jw0kwnz6ay","944.1999999999098"," ","0","9"
"","html-button-response","35","52999","0.0-35.0","jw0kwnz6ay","1051.5000000004875"," ","1","5"
"","html-button-response","36","53985","0.0-36.0","jw0kwnz6ay","983.0999999994674"," ","0","8"
"","html-button-response","37","55056","0.0-37.0","jw0kwnz6ay","1068.0999999995038"," ","1","3"
"","html-button-response","38","56063","0.0-38.0","jw0kwnz6ay","1003.500000000713"," ","1","7"
"","html-button-response","39","56981","0.0-39.0","jw0kwnz6ay","914.7999999995591"," ","0","9"
"","html-button-response","40","58109","0.0-40.0","jw0kwnz6ay","1124.2000000002008"," ","1","8"
"","html-button-response","41","59290","0.0-41.0","jw0kwnz6ay","1177.2999999993772"," ","0","6"
"","html-button-response","42","60416","0.0-42.0","jw0kwnz6ay","1122.8999999993903"," ","0","5"
"","html-button-response","43","61380","0.0-43.0","jw0kwnz6ay","951.2000000004264"," ","0","7"
"","html-button-response","44","63753","0.0-44.0","jw0kwnz6ay","2369.5000000006985"," ","1","5"
"","html-button-response","45","67789","0.0-45.0","jw0kwnz6ay","4033.0999999996493"," ","1","9"
"","html-button-response","46","68636","0.0-46.0","jw0kwnz6ay","","","",""
"true","fullscreen","0","16756","0.0-0.0","5064xq80vo","","","",""
"","html-button-response","1","17691","0.0-1.0","5064xq80vo","914.8999999997613"," ","1","9"
"","html-button-response","2","18385","0.0-2.0","5064xq80vo","690.999999998894"," ","1","6"
"","html-button-response","3","19292","0.0-3.0","5064xq80vo","902.6000000012573"," ","1","4"
"","html-button-response","4","20605","0.0-4.0","5064xq80vo","1309.4999999993888"," ","0","3"
"","html-button-response","5","21344","0.0-5.0","5064xq80vo","736.1999999993714"," ","0","4"
"","html-button-response","6","21989","0.0-6.0","5064xq80vo","640.9000000003289"," ","1","5"
"","html-button-response","7","22731","0.0-7.0","5064xq80vo","738.7999999991735"," ","1","6"
"","html-button-response","8","23375","0.0-8.0","5064xq80vo","640.7999999992171"," ","0","8"
"","html-button-response","9","24110","0.0-9.0","5064xq80vo","731.2000000001717"," ","1","7"
"","html-button-response","10","24926","0.0-10.0","5064xq80vo","812.3999999988882"," ","0","2"
"","html-button-response","11","25776","0.0-11.0","5064xq80vo","846.9000000004598"," ","0","6"
"","html-button-response","12","26680","0.0-12.0","5064xq80vo","900.7999999994354"," ","1","4"
"","html-button-response","13","27504","0.0-13.0","5064xq80vo","821.29999999961"," ","0","9"
"","html-button-response","14","28246","0.0-14.0","5064xq80vo","738.5000000012951"," ","1","8"
"","html-button-response","15","28959","0.0-15.0","5064xq80vo","709.8000000005413"," ","1","5"
"","html-button-response","16","29757","0.0-16.0","5064xq80vo","795.0000000000728"," ","0","7"
"","html-button-response","17","30533","0.0-17.0","5064xq80vo","772.6000000002387"," ","1","9"
"","html-button-response","18","31708","0.0-18.0","5064xq80vo","1171.199999998862"," ","0","7"
"","html-button-response","19","32559","0.0-19.0","5064xq80vo","847.9999999999563"," ","0","5"
"","html-button-response","20","33195","0.0-20.0","5064xq80vo","632.3999999985972"," ","1","9"
"","html-button-response","21","34075","0.0-21.0","5064xq80vo","877.5999999998021"," ","1","4"
"","html-button-response","22","34696","0.0-22.0","5064xq80vo","617.499999998472"," ","0","8"
"","html-button-response","23","35464","0.0-23.0","5064xq80vo","764.6000000004278"," ","1","2"
"","html-button-response","24","36355","0.0-24.0","5064xq80vo","887.3999999996158"," ","0","4"
"","html-button-response","25","37004","0.0-25.0","5064xq80vo","645.8999999995285"," ","1","6"
"","html-button-response","26","37657","0.0-26.0","5064xq80vo","650.2000000000407"," ","0","8"
"","html-button-response","27","38393","0.0-27.0","5064xq80vo","732.399999998961"," ","1","9"
"","html-button-response","28","40085","0.0-28.0","5064xq80vo","1688.9000000010128"," ","1","5"
"","html-button-response","29","40770","0.0-29.0","5064xq80vo","681.9000000014057"," ","0","6"
"","html-button-response","30","41414","0.0-30.0","5064xq80vo","640.4999999995198"," ","1","7"
"","html-button-response","31","42411","0.0-31.0","5064xq80vo","993.8999999994849"," ","1","6"
"","html-button-response","32","43203","0.0-32.0","5064xq80vo","788.0999999997584"," ","0","4"
"","html-button-response","33","44322","0.0-33.0","5064xq80vo","1116.5000000000873"," ","0","2"
"","html-button-response","34","45481","0.0-34.0","5064xq80vo","1154.8000000002503"," ","0","9"
"","html-button-response","35","46550","0.0-35.0","5064xq80vo","1065.999999998894"," ","1","5"
"","html-button-response","36","47225","0.0-36.0","5064xq80vo","672.3000000001775"," ","0","8"
"","html-button-response","37","48197","0.0-37.0","5064xq80vo","968.7999999987369"," ","1","3"
"","html-button-response","38","49218","0.0-38.0","5064xq80vo","1016.7999999994208"," ","1","7"
"","html-button-response","39","49853","0.0-39.0","5064xq80vo","632.4000000004162"," ","0","9"
"","html-button-response","40","50431","0.0-40.0","5064xq80vo","574.0999999998166"," ","1","8"
"","html-button-response","41","51147","0.0-41.0","5064xq80vo","712.9999999997381"," ","0","6"
"","html-button-response","42","51924","0.0-42.0","5064xq80vo","773.6000000004424"," ","0","5"
"","html-button-response","43","52883","0.0-43.0","5064xq80vo","952.7999999991152"," ","0","7"
"","html-button-response","44","53539","0.0-44.0","5064xq80vo","652.8000000016618"," ","1","5"
"","html-button-response","45","54299","0.0-45.0","5064xq80vo","756.600000000617"," ","1","9"
"","html-button-response","46","55328","0.0-46.0","5064xq80vo","1025.4000000004453"," ","0","4"
"","html-button-response","47","56136","0.0-47.0","5064xq80vo","804.9000000009983"," ","0","9"
"","html-button-response","48","56797","0.0-48.0","5064xq80vo","658.2999999991443"," ","1","8"
"","html-button-response","49","57619","0.0-49.0","5064xq80vo","818.6999999998079"," ","1","4"
"","html-button-response","50","58362","0.0-50.0","5064xq80vo","738.999999999578"," ","1","6"
"","html-button-response","51","59047","0.0-51.0","5064xq80vo","682.2999999985768"," ","0","5"
"","html-button-response","52","59781","0.0-52.0","5064xq80vo","730.2999999992608"," ","1","8"
"","html-button-response","53","61422","0.0-53.0","5064xq80vo","1637.6000000000204"," ","0","5"
"","html-button-response","54","62287","0.0-54.0","5064xq80vo","861.6999999994732"," ","1","2"
"","html-button-response","55","63445","0.0-55.0","5064xq80vo","1155.3000000003522"," ","0","7"
"","html-button-response","56","64344","0.0-56.0","5064xq80vo","895.699999999124"," ","1","9"
"","html-button-response","57","65063","0.0-57.0","5064xq80vo","715.6999999988329"," ","0","8"
"","html-button-response","58","65933","0.0-58.0","5064xq80vo","866.7000000004919"," ","0","6"
"","html-button-response","59","66717","0.0-59.0","5064xq80vo","780.3000000003522"," ","1","7"
"","html-button-response","60","67874","0.0-60.0","5064xq80vo","1154.4000000012602"," ","1","3"
"true","fullscreen","61","68878","0.0-61.0","5064xq80vo","","","",""
"true","fullscreen","0","13489","0.0-0.0","5kr6v9l3k3","","","",""
"","html-button-response","1","15693","0.0-1.0","5kr6v9l3k3","2183.999999999287"," ","1","9"
"","html-button-response","2","16474","0.0-2.0","5kr6v9l3k3","776.7000000003463"," ","1","6"
"","html-button-response","3","17381","0.0-3.0","5kr6v9l3k3","904.1999999990367"," ","0","5"
"","html-button-response","4","18211","0.0-4.0","5kr6v9l3k3","825.7999999987078"," ","0","3"
"","html-button-response","5","18977","0.0-5.0","5kr6v9l3k3","762.6999999993131"," ","0","4"
"","html-button-response","6","19687","0.0-6.0","5kr6v9l3k3","706.2999999998283"," ","1","5"
"","html-button-response","7","20584","0.0-7.0","5kr6v9l3k3","894.1999999988184"," ","1","6"
"","html-button-response","8","21382","0.0-8.0","5kr6v9l3k3","794.5999999992637"," ","0","8"
"","html-button-response","9","22171","0.0-9.0","5kr6v9l3k3","784.9999999998545"," ","1","7"
"","html-button-response","10","22946","0.0-10.0","5kr6v9l3k3","772.3000000005413"," ","0","2"
"","html-button-response","11","23883","0.0-11.0","5kr6v9l3k3","933.100000000195"," ","0","6"
"","html-button-response","12","24681","0.0-12.0","5kr6v9l3k3","794.8000000014872"," ","1","4"
"","html-button-response","13","25472","0.0-13.0","5kr6v9l3k3","788.1000000015774"," ","0","9"
"","html-button-response","14","26318","0.0-14.0","5kr6v9l3k3","842.000000000553"," ","1","8"
"","html-button-response","15","27109","0.0-15.0","5kr6v9l3k3","788.5000000005675"," ","1","5"
"","html-button-response","16","27894","0.0-16.0","5kr6v9l3k3","781.3000000005559"," ","0","7"
"","html-button-response","17","28718","0.0-17.0","5kr6v9l3k3","821.0999999992055"," ","1","9"
"","html-button-response","18","29481","0.0-18.0","5kr6v9l3k3","759.0000000000146"," ","0","7"
"","html-button-response","19","30352","0.0-19.0","5kr6v9l3k3","867.7999999999884"," ","0","5"
"","html-button-response","20","31154","0.0-20.0","5kr6v9l3k3","799.3999999998778"," ","1","9"
"","html-button-response","21","32023","0.0-21.0","5kr6v9l3k3","865.6000000009954"," ","1","4"
"","html-button-response","22","32782","0.0-22.0","5kr6v9l3k3","755.299999998897"," ","0","8"
"","html-button-response","23","33538","0.0-23.0","5kr6v9l3k3","752.8000000002066"," ","1","2"
"","html-button-response","24","34303","0.0-24.0","5kr6v9l3k3","761.899999999514"," ","0","4"
"","html-button-response","25","35110","0.0-25.0","5kr6v9l3k3","804.0999999993801"," ","1","6"
"","html-button-response","26","36096","0.0-26.0","5kr6v9l3k3","982.0000000017899"," ","0","8"
"","html-button-response","27","36854","0.0-27.0","5kr6v9l3k3","755.300000000716"," ","1","9"
"","html-button-response","28","38000","0.0-28.0","5kr6v9l3k3","1142.20000000023"," ","1","5"
"","html-button-response","29","38864","0.0-29.0","5kr6v9l3k3","861.0000000007858"," ","0","6"
"","html-button-response","30","39627","0.0-30.0","5kr6v9l3k3","760.3000000017346"," ","1","7"
"","html-button-response","31","40630","0.0-31.0","5kr6v9l3k3","999.2000000002008"," ","1","6"
"","html-button-response","32","41459","0.0-32.0","5kr6v9l3k3","826.3999999999214"," ","0","4"
"","html-button-response","33","42306","0.0-33.0","5kr6v9l3k3","843.6999999994441"," ","0","2"
"","html-button-response","34","43212","0.0-34.0","5kr6v9l3k3","902.0000000000437"," ","0","9"
"","html-button-response","35","44017","0.0-35.0","5kr6v9l3k3","802.1000000007916"," ","1","5"
"","html-button-response","36","44845","0.0-36.0","5kr6v9l3k3","825.1000000000204"," ","0","8"
"","html-button-response","37","45596","0.0-37.0","5kr6v9l3k3","747.799999999188"," ","1","3"
"","html-button-response","38","46583","0.0-38.0","5kr6v9l3k3","983.5000000002765"," ","1","7"
"","html-button-response","39","47448","0.0-39.0","5kr6v9l3k3","862.1999999995751"," ","0","9"
"","html-button-response","40","48279","0.0-40.0","5kr6v9l3k3","827.7000000016415"," ","1","8"
"","html-button-response","41","49073","0.0-41.0","5kr6v9l3k3","789.9999999990541"," ","0","6"
"","html-button-response","42","49917","0.0-42.0","5kr6v9l3k3","840.7999999999447"," ","0","5"
"","html-button-response","43","50747","0.0-43.0","5kr6v9l3k3","820.4999999998108"," ","0","7"
"","html-button-response","44","51523","0.0-44.0","5kr6v9l3k3","772.3999999998341"," ","1","5"
"","html-button-response","45","52396","0.0-45.0","5kr6v9l3k3","870.1999999993859"," ","1","9"
"","html-button-response","46","53170","0.0-46.0","5kr6v9l3k3","770.699999999124"," ","0","4"
"","html-button-response","47","54032","0.0-47.0","5kr6v9l3k3","858.3999999991647"," ","0","9"
"","html-button-response","48","57013","0.0-48.0","5kr6v9l3k3","2978.2999999988533"," ","1","8"
"","html-button-response","49","58112","0.0-49.0","5kr6v9l3k3","1095.3999999983353"," ","1","4"
"","html-button-response","50","58953","0.0-50.0","5kr6v9l3k3","836.9000000002416"," ","1","6"
"","html-button-response","51","59684","0.0-51.0","5kr6v9l3k3","725.8999999994558"," ","0","5"
"","html-button-response","52","60513","0.0-52.0","5kr6v9l3k3","826.4000000017404"," ","0","9"
"","html-button-response","53","61335","0.0-53.0","5kr6v9l3k3","818.4999999994034"," ","0","5"
"","html-button-response","54","62016","0.0-54.0","5kr6v9l3k3","677.9000000005908"," ","1","2"
"","html-button-response","55","62685","0.0-55.0","5kr6v9l3k3","665.8000000006723"," ","0","7"
"","html-button-response","56","63402","0.0-56.0","5kr6v9l3k3","713.1000000008498"," ","1","9"
"","html-button-response","57","64057","0.0-57.0","5kr6v9l3k3","652.299999999741"," ","0","8"
"","html-button-response","58","64882","0.0-58.0","5kr6v9l3k3","821.0999999992055"," ","0","6"
"","html-button-response","59","65567","0.0-59.0","5kr6v9l3k3","681.8999999995867"," ","1","7"
"","html-button-response","60","66316","0.0-60.0","5kr6v9l3k3","745.1000000000931"," ","1","3"
"true","fullscreen","61","67319","0.0-61.0","5kr6v9l3k3","","","",""
"true","fullscreen","0","6959","0.0-0.0","5owz2tdzlf","","","",""
"","html-button-response","1","8490","0.0-1.0","5owz2tdzlf","1508.0000000016298"," ","1","9"
"","html-button-response","2","9486","0.0-2.0","5owz2tdzlf","992.7999999999884"," ","1","6"
"","html-button-response","3","10442","0.0-3.0","5owz2tdzlf","952.0999999986088"," ","0","5"
"","html-button-response","4","11291","0.0-4.0","5owz2tdzlf","845.4000000019732"," ","0","3"
"","html-button-response","5","12125","0.0-5.0","5owz2tdzlf","830.3000000014435"," ","0","4"
"","html-button-response","6","12958","0.0-6.0","5owz2tdzlf","829.2000000001281"," ","1","5"
"","html-button-response","7","13800","0.0-7.0","5owz2tdzlf","838.9999999999418"," ","1","6"
"","html-button-response","8","14567","0.0-8.0","5owz2tdzlf","763.200000001234"," ","0","8"
"","html-button-response","9","15334","0.0-9.0","5owz2tdzlf","763.7999999969907"," ","1","7"
"","html-button-response","10","16167","0.0-10.0","5owz2tdzlf","830.3999999989173"," ","0","2"
"","html-button-response","11","17114","0.0-11.0","5owz2tdzlf","943.6999999998079"," ","0","6"
"","html-button-response","12","17973","0.0-12.0","5owz2tdzlf","855.5000000014843"," ","1","4"
"","html-button-response","13","18728","0.0-13.0","5owz2tdzlf","751.0000000002037"," ","0","9"
"","html-button-response","14","19616","0.0-14.0","5owz2tdzlf","884.8999999972875"," ","1","8"
"","html-button-response","15","20447","0.0-15.0","5owz2tdzlf","827.7000000016415"," ","1","5"
"","html-button-response","16","21213","0.0-16.0","5owz2tdzlf","762.9999999990105"," ","0","7"
"","html-button-response","17","21990","0.0-17.0","5owz2tdzlf","773.3999999982188"," ","1","9"
"","html-button-response","18","22797","0.0-18.0","5owz2tdzlf","804.2000000023108"," ","0","7"
"","html-button-response","19","23564","0.0-19.0","5owz2tdzlf","763.1000000001222"," ","0","5"
"","html-button-response","20","24347","0.0-20.0","5owz2tdzlf","780.3999999996449"," ","1","9"
"","html-button-response","21","25093","0.0-21.0","5owz2tdzlf","742.6999999988766"," ","1","4"
"","html-button-response","22","25883","0.0-22.0","5owz2tdzlf","786.6999999969266"," ","0","8"
"","html-button-response","23","26612","0.0-23.0","5owz2tdzlf","725.5999999979394"," ","1","2"
"","html-button-response","24","27321","0.0-24.0","5owz2tdzlf","705.4000000025553"," ","0","4"
"","html-button-response","25","28139","0.0-25.0","5owz2tdzlf","814.9999999986903"," ","1","6"
"","html-button-response","26","28914","0.0-26.0","5owz2tdzlf","772.4999999991269"," ","0","8"
"","html-button-response","27","29675","0.0-27.0","5owz2tdzlf","757.499999999709"," ","1","9"
"","html-button-response","28","30564","0.0-28.0","5owz2tdzlf","885.6999999989057"," ","1","5"
"","html-button-response","29","31307","0.0-29.0","5owz2tdzlf","739.1999999999825"," ","0","6"
"","html-button-response","30","33464","0.0-30.0","5owz2tdzlf","2153.9000000011583"," ","1","7"
"","html-button-response","31","34525","0.0-31.0","5owz2tdzlf","1057.3999999978696"," ","1","6"
"","html-button-response","32","35758","0.0-32.0","5owz2tdzlf","1230.199999998149"," ","0","4"
"","html-button-response","33","36485","0.0-33.0","5owz2tdzlf","724.0000000019791"," ","0","2"
"","html-button-response","34","37307","0.0-34.0","5owz2tdzlf","818.200000001525"," ","0","9"
"","html-button-response","35","38269","0.0-35.0","5owz2tdzlf","959.500000000844"," ","1","5"
"","html-button-response","36","39062","0.0-36.0","5owz2tdzlf","789.600000000064"," ","0","8"
"","html-button-response","37","39887","0.0-37.0","5owz2tdzlf","821.5999999993073"," ","1","3"
"","html-button-response","38","40842","0.0-38.0","5owz2tdzlf","951.5000000028522"," ","1","7"
"","html-button-response","39","41772","0.0-39.0","5owz2tdzlf","927.1000000007916"," ","0","9"
"","html-button-response","40","42463","0.0-40.0","5owz2tdzlf","687.7999999996973"," ","1","8"
"","html-button-response","41","43247","0.0-41.0","5owz2tdzlf","780.1999999974214"," ","0","6"
"","html-button-response","42","43975","0.0-42.0","5owz2tdzlf","713.5999999991327"," ","0","5"
"","html-button-response","43","44708","0.0-43.0","5owz2tdzlf","729.3999999965308"," ","0","7"
"","html-button-response","44","45360","0.0-44.0","5owz2tdzlf","648.9000000001397"," ","1","5"
"","html-button-response","45","46093","0.0-45.0","5owz2tdzlf","729.5999999987544"," ","1","9"
"","html-button-response","46","46782","0.0-46.0","5owz2tdzlf","685.3999999984808"," ","0","4"
"","html-button-response","47","47548","0.0-47.0","5owz2tdzlf","762.6999999993131"," ","0","9"
"","html-button-response","48","48267","0.0-48.0","5owz2tdzlf","716.0000000003492"," ","1","8"
"","html-button-response","49","48982","0.0-49.0","5owz2tdzlf","711.5000000012515"," ","1","4"
"","html-button-response","50","49699","0.0-50.0","5owz2tdzlf","714.4000000007509"," ","1","6"
"","html-button-response","51","50394","0.0-51.0","5owz2tdzlf","691.2999999985914"," ","0","5"
"","html-button-response","52","51135","0.0-52.0","5owz2tdzlf","738.1999999997788"," ","0","9"
"","html-button-response","53","52375","0.0-53.0","5owz2tdzlf","1237.200000003213"," ","0","5"
"","html-button-response","54","53191","0.0-54.0","5owz2tdzlf","811.9999999980791"," ","1","2"
"","html-button-response","55","54070","0.0-55.0","5owz2tdzlf","876.2000000024273"," ","0","7"
"","html-button-response","56","54769","0.0-56.0","5owz2tdzlf","696.0999999973865"," ","1","9"
"","html-button-response","57","55454","0.0-57.0","5owz2tdzlf","681.1000000016065"," ","0","8"
"","html-button-response","58","56287","0.0-58.0","5owz2tdzlf","829.5999999972992"," ","0","6"
"","html-button-response","59","56997","0.0-59.0","5owz2tdzlf","707.3999999993248"," ","1","7"
"","html-button-response","60","57712","0.0-60.0","5owz2tdzlf","711.8999999984226"," ","1","3"
"true","fullscreen","61","58716","0.0-61.0","5owz2tdzlf","","","",""
"true","fullscreen","0","16451272","0.0-0.0","qho7rql4zr","","","",""
"","html-button-response","1","16452159","0.0-1.0","qho7rql4zr","861.7000000013504"," ","1","9"
"","html-button-response","2","16452987","0.0-2.0","qho7rql4zr","824.3000000002794"," ","1","6"
"","html-button-response","3","16453711","0.0-3.0","qho7rql4zr","720.899999992922"," ","0","5"
"","html-button-response","4","16454462","0.0-4.0","qho7rql4zr","747.5000000048894"," ","0","3"
"","html-button-response","5","16456089","0.0-5.0","qho7rql4zr","1623.0999999968335"," ","0","4"
"","html-button-response","6","16456847","0.0-6.0","qho7rql4zr","754.2000000029802"," ","1","5"
"","html-button-response","7","16457602","0.0-7.0","qho7rql4zr","751.400000001071"," ","1","6"
"","html-button-response","8","16458303","0.0-8.0","qho7rql4zr","697.2999999998137"," ","0","8"
"","html-button-response","9","16458989","0.0-9.0","qho7rql4zr","683.1999999997206"," ","1","7"
"","html-button-response","10","16459709","0.0-10.0","qho7rql4zr","715.9000000029337"," ","0","2"
"","html-button-response","11","16460770","0.0-11.0","qho7rql4zr","1058.0000000046566"," ","0","6"
"","html-button-response","12","16461495","0.0-12.0","qho7rql4zr","721.7999999993481"," ","1","4"
"","html-button-response","13","16462246","0.0-13.0","qho7rql4zr","746.3999999964144"," ","0","9"
"","html-button-response","14","16463063","0.0-14.0","qho7rql4zr","812.1000000028871"," ","1","8"
"","html-button-response","15","16463771","0.0-15.0","qho7rql4zr","704.7999999995809"," ","1","5"
"","html-button-response","16","16464544","0.0-16.0","qho7rql4zr","769.3000000000466"," ","0","7"
"","html-button-response","17","16465334","0.0-17.0","qho7rql4zr","786.9999999965075"," ","1","9"
"","html-button-response","18","16466122","0.0-18.0","qho7rql4zr","784.2999999993481"," ","0","7"
"","html-button-response","19","16466860","0.0-19.0","qho7rql4zr","735.3999999978114"," ","0","5"
"","html-button-response","20","16467586","0.0-20.0","qho7rql4zr","722.7999999958556"," ","1","9"
"","html-button-response","21","16468307","0.0-21.0","qho7rql4zr","715.0999999940395"," ","1","4"
"","html-button-response","22","16469119","0.0-22.0","qho7rql4zr","808.6000000038184"," ","0","8"
"","html-button-response","23","16469842","0.0-23.0","qho7rql4zr","719.4999999990687"," ","1","2"
"","html-button-response","24","16470583","0.0-24.0","qho7rql4zr","737.6000000005588"," ","0","4"
"","html-button-response","25","16471329","0.0-25.0","qho7rql4zr","743.500000004191"," ","1","6"
"","html-button-response","26","16472092","0.0-26.0","qho7rql4zr","759.2000000001863"," ","0","8"
"","html-button-response","27","16472840","0.0-27.0","qho7rql4zr","745.399999999674"," ","1","9"
"","html-button-response","28","16473757","0.0-28.0","qho7rql4zr","913.4999999951106"," ","1","5"
"","html-button-response","29","16474469","0.0-29.0","qho7rql4zr","709.1999999973923"," ","0","6"
"","html-button-response","30","16475187","0.0-30.0","qho7rql4zr","714.2000000022817"," ","1","7"
"","html-button-response","31","16476086","0.0-31.0","qho7rql4zr","896.1999999955297"," ","1","6"
"","html-button-response","32","16476814","0.0-32.0","qho7rql4zr","724.5999999942724"," ","0","4"
"","html-button-response","33","16477510","0.0-33.0","qho7rql4zr","692.3000000023749"," ","0","2"
"","html-button-response","34","16478386","0.0-34.0","qho7rql4zr","872.6999999997206"," ","0","9"
"","html-button-response","35","16479206","0.0-35.0","qho7rql4zr","816.7000000032131"," ","1","5"
"","html-button-response","36","16479988","0.0-36.0","qho7rql4zr","778.3999999957159"," ","0","8"
"","html-button-response","37","16480731","0.0-37.0","qho7rql4zr","739.6000000007916"," ","1","3"
"","html-button-response","38","16481630","0.0-38.0","qho7rql4zr","895.1999999990221"," ","1","7"
"","html-button-response","39","16482485","0.0-39.0","qho7rql4zr","852.4000000033993"," ","0","9"
"","html-button-response","40","16483240","0.0-40.0","qho7rql4zr","751.300000003539"," ","1","8"
"","html-button-response","41","16483962","0.0-41.0","qho7rql4zr","719.1000000019558"," ","0","6"
"","html-button-response","42","16484753","0.0-42.0","qho7rql4zr","787.5999999959022"," ","0","5"
"","html-button-response","43","16485465","0.0-43.0","qho7rql4zr","709.0000000025611"," ","0","7"
"","html-button-response","44","16486174","0.0-44.0","qho7rql4zr","696.900000002468"," ","1","5"
"","html-button-response","45","16486896","0.0-45.0","qho7rql4zr","718.3999999980442"," ","1","9"
"","html-button-response","46","16487585","0.0-46.0","qho7rql4zr","685.8999999968801"," ","0","4"
"","html-button-response","47","16488414","0.0-47.0","qho7rql4zr","825.9000000033993"," ","0","9"
"","html-button-response","48","16489153","0.0-48.0","qho7rql4zr","735.6000000000931"," ","1","8"
"","html-button-response","49","16489818","0.0-49.0","qho7rql4zr","661.4999999946449"," ","1","4"
"","html-button-response","50","16490485","0.0-50.0","qho7rql4zr","663.8000000019092"," ","1","6"
"","html-button-response","51","16491174","0.0-51.0","qho7rql4zr","686.0999999991618"," ","0","5"
"","html-button-response","52","16492150","0.0-52.0","qho7rql4zr","972.6999999985565"," ","0","9"
"","html-button-response","53","16492824","0.0-53.0","qho7rql4zr","670.7999999998137"," ","0","5"
"","html-button-response","54","16493507","0.0-54.0","qho7rql4zr","679.2999999960884"," ","1","2"
"","html-button-response","55","16494338","0.0-55.0","qho7rql4zr","828.000000001397"," ","0","7"
"","html-button-response","56","16495069","0.0-56.0","qho7rql4zr","728.1999999976251"," ","0","5"
"","html-button-response","57","16496099","0.0-57.0","qho7rql4zr","1026.4999999997672"," ","0","8"
"","html-button-response","58","16497068","0.0-58.0","qho7rql4zr","964.8999999989755"," ","0","6"
"","html-button-response","59","16497960","0.0-59.0","qho7rql4zr","887.399999999674"," ","1","7"
"","html-button-response","60","16499097","0.0-60.0","qho7rql4zr","1134.0999999956694"," ","1","3"
"true","fullscreen","61","16500101","0.0-61.0","qho7rql4zr","","","",""
"true","fullscreen","0","22354","0.0-0.0","dq33u22d9p","","","",""
"","html-button-response","1","23423","0.0-1.0","dq33u22d9p","1048.4999999971478"," ","1","9"
"","html-button-response","2","24463","0.0-2.0","dq33u22d9p","1035.7999999978347"," ","1","6"
"","html-button-response","3","25373","0.0-3.0","dq33u22d9p","906.3999999998487"," ","0","5"
"","html-button-response","4","27574","0.0-4.0","dq33u22d9p","2197.700000004261"," ","0","3"
"","html-button-response","5","28299","0.0-5.0","dq33u22d9p","721.7999999993481"," ","0","4"
"","html-button-response","6","29036","0.0-6.0","dq33u22d9p","733.699999997043"," ","1","5"
"","html-button-response","7","29741","0.0-7.0","dq33u22d9p","701.0000000009313"," ","1","6"
"","html-button-response","8","30472","0.0-8.0","dq33u22d9p","727.5999999983469"," ","0","8"
"","html-button-response","9","31235","0.0-9.0","dq33u22d9p","759.5000000001164"," ","1","7"
"","html-button-response","10","32006","0.0-10.0","dq33u22d9p","767.7000000039698"," ","0","2"
"","html-button-response","11","32804","0.0-11.0","dq33u22d9p","794.90000000078"," ","0","6"
"","html-button-response","12","33621","0.0-12.0","dq33u22d9p","813.7000000060652"," ","1","4"
"","html-button-response","13","34468","0.0-13.0","dq33u22d9p","843.4000000052038"," ","0","9"
"","html-button-response","14","35220","0.0-14.0","dq33u22d9p","749.4000000006054"," ","1","8"
"","html-button-response","15","35951","0.0-15.0","dq33u22d9p","727.5999999983469"," ","1","5"
"","html-button-response","16","36706","0.0-16.0","dq33u22d9p","751.7999999981839"," ","0","7"
"","html-button-response","17","37485","0.0-17.0","dq33u22d9p","775.9000000005472"," ","1","9"
"","html-button-response","18","38355","0.0-18.0","dq33u22d9p","866.3999999989755"," ","0","7"
"","html-button-response","19","39077","0.0-19.0","dq33u22d9p","719.1000000020722"," ","0","5"
"","html-button-response","20","39850","0.0-20.0","dq33u22d9p","769.5000000021537"," ","1","9"
"","html-button-response","21","40612","0.0-21.0","dq33u22d9p","758.6999999984982"," ","1","4"
"","html-button-response","22","41385","0.0-22.0","dq33u22d9p","769.0999999977066"," ","0","8"
"","html-button-response","23","42114","0.0-23.0","dq33u22d9p","725.800000000163"," ","1","2"
"","html-button-response","24","42895","0.0-24.0","dq33u22d9p","778.3999999955995"," ","0","4"
"","html-button-response","25","43562","0.0-25.0","dq33u22d9p","663.5000000023865"," ","0","5"
"","html-button-response","26","44504","0.0-26.0","dq33u22d9p","939.2000000007101"," ","0","8"
"","html-button-response","27","45251","0.0-27.0","dq33u22d9p","743.399999999383"," ","1","9"
"","html-button-response","28","45973","0.0-28.0","dq33u22d9p","718.4000000052038"," ","1","5"
"","html-button-response","29","46727","0.0-29.0","dq33u22d9p","750.899999999092"," ","0","6"
"","html-button-response","30","47473","0.0-30.0","dq33u22d9p","743.3000000019092"," ","1","7"
"","html-button-response","31","48237","0.0-31.0","dq33u22d9p","760.1999999969848"," ","1","6"
"","html-button-response","32","49056","0.0-32.0","dq33u22d9p","816.3000000058673"," ","0","4"
"","html-button-response","33","49846","0.0-33.0","dq33u22d9p","786.5999999994528"," ","0","2"
"","html-button-response","34","50715","0.0-34.0","dq33u22d9p","865.8999999970547"," ","0","9"
"","html-button-response","35","51485","0.0-35.0","dq33u22d9p","766.7000000001281"," ","1","5"
"","html-button-response","36","52462","0.0-36.0","dq33u22d9p","974.0999999994528"," ","0","8"
"","html-button-response","37","53256","0.0-37.0","dq33u22d9p","790.0000000008731"," ","1","3"
"","html-button-response","38","54034","0.0-38.0","dq33u22d9p","775.0000000014552"," ","1","7"
"","html-button-response","39","54879","0.0-39.0","dq33u22d9p","841.6999999972177"," ","0","9"
"","html-button-response","40","55705","0.0-40.0","dq33u22d9p","822.7000000042608"," ","1","8"
"","html-button-response","41","56568","0.0-41.0","dq33u22d9p","860.0000000005821"," ","0","6"
"","html-button-response","42","57378","0.0-42.0","dq33u22d9p","806.7000000010012"," ","0","5"
"","html-button-response","43","58214","0.0-43.0","dq33u22d9p","832.3999999993248"," ","0","7"
"","html-button-response","44","59039","0.0-44.0","dq33u22d9p","821.1999999984982"," ","1","5"
"","html-button-response","45","59875","0.0-45.0","dq33u22d9p","826.4000000053784"," ","1","9"
"","html-button-response","46","60741","0.0-46.0","dq33u22d9p","863.0000000048312"," ","0","4"
"","html-button-response","47","61535","0.0-47.0","dq33u22d9p","790.2000000030966"," ","0","9"
"","html-button-response","48","62401","0.0-48.0","dq33u22d9p","862.3999999981606"," ","1","8"
"","html-button-response","49","63265","0.0-49.0","dq33u22d9p","860.0999999980559"," ","1","4"
"","html-button-response","50","64160","0.0-50.0","dq33u22d9p","890.9000000057858"," ","1","6"
"","html-button-response","51","64999","0.0-51.0","dq33u22d9p","835.7000000032713"," ","0","5"
"","html-button-response","52","65840","0.0-52.0","dq33u22d9p","838.4999999980209"," ","0","9"
"","html-button-response","53","66650","0.0-53.0","dq33u22d9p","806.1999999990803"," ","0","5"
"","html-button-response","54","67566","0.0-54.0","dq33u22d9p","912.4999999985448"," ","1","2"
"","html-button-response","55","68375","0.0-55.0","dq33u22d9p","805.5999999996857"," ","0","7"
"","html-button-response","56","69162","0.0-56.0","dq33u22d9p","783.6999999999534"," ","1","9"
"","html-button-response","57","69949","0.0-57.0","dq33u22d9p","783.6999999999534"," ","0","8"
"","html-button-response","58","70834","0.0-58.0","dq33u22d9p","882.499999999709"," ","0","6"
"","html-button-response","59","71675","0.0-59.0","dq33u22d9p","837.5000000014552"," ","1","7"
"","html-button-response","60","72446","0.0-60.0","dq33u22d9p","767.5000000017462"," ","1","3"
"true","fullscreen","61","73450","0.0-61.0","dq33u22d9p","","","",""
"true","fullscreen","0","34974","0.0-0.0","7lp93h6rxn","","","",""
"","html-button-response","1","36404","0.0-1.0","7lp93h6rxn","1410.5999999956111"," ","0","8"
"","html-button-response","2","38528","0.0-2.0","7lp93h6rxn","2120.6999999994878"," ","1","6"
"","html-button-response","3","39561","0.0-3.0","7lp93h6rxn","1029.0999999997439"," ","0","5"
"","html-button-response","4","40521","0.0-4.0","7lp93h6rxn","956.400000002759"," ","0","3"
"","html-button-response","5","41352","0.0-5.0","7lp93h6rxn","828.5000000032596"," ","0","4"
"","html-button-response","6","42872","0.0-6.0","7lp93h6rxn","1515.7000000035623"," ","1","5"
"","html-button-response","7","44559","0.0-7.0","7lp93h6rxn","1682.6000000000931"," ","1","6"
"","html-button-response","8","46233","0.0-8.0","7lp93h6rxn","1670.299999997951"," ","0","8"
"","html-button-response","9","47205","0.0-9.0","7lp93h6rxn","967.899999996007"," ","1","7"
"","html-button-response","10","48375","0.0-10.0","7lp93h6rxn","1166.799999999057"," ","0","2"
"","html-button-response","11","49591","0.0-11.0","7lp93h6rxn","1211.9999999995343"," ","0","6"
"","html-button-response","12","50453","0.0-12.0","7lp93h6rxn","858.0999999976484"," ","1","4"
"","html-button-response","13","52636","0.0-13.0","7lp93h6rxn","2179.0000000037253"," ","0","9"
"","html-button-response","14","53701","0.0-14.0","7lp93h6rxn","1060.700000001816"," ","1","8"
"","html-button-response","15","54601","0.0-15.0","7lp93h6rxn","895.9999999933643"," ","1","5"
"","html-button-response","16","55512","0.0-16.0","7lp93h6rxn","907.6999999961117"," ","0","7"
"","html-button-response","17","59818","0.0-17.0","7lp93h6rxn","4301.800000001094"," ","1","9"
"","html-button-response","18","61198","0.0-18.0","7lp93h6rxn","1377.0000000004075"," ","0","7"
"","html-button-response","19","66812","0.0-19.0","7lp93h6rxn","5609.900000003108"," ","0","5"
"","html-button-response","20","68050","0.0-20.0","7lp93h6rxn","1234.4999999986612"," ","1","9"
"","html-button-response","21","68887","0.0-21.0","7lp93h6rxn","832.6000000015483"," ","1","4"
"","html-button-response","22","72122","0.0-22.0","7lp93h6rxn","3232.1000000010827"," ","0","8"
"","html-button-response","23","73233","0.0-23.0","7lp93h6rxn","1106.6999999966356"," ","1","2"
"","html-button-response","24","74520","0.0-24.0","7lp93h6rxn","1283.9999999996508"," ","0","4"
"","html-button-response","25","76242","0.0-25.0","7lp93h6rxn","1717.7999999985332"," ","1","6"
"","html-button-response","26","78572","0.0-26.0","7lp93h6rxn","2326.999999997497"," ","0","8"
"","html-button-response","27","79515","0.0-27.0","7lp93h6rxn","939.2000000007101"," ","1","9"
"","html-button-response","28","80717","0.0-28.0","7lp93h6rxn","1198.099999994156"," ","1","5"
"","html-button-response","29","81620","0.0-29.0","7lp93h6rxn","899.7999999992317"," ","0","6"
"","html-button-response","30","85155","0.0-30.0","7lp93h6rxn","3531.199999997625"," ","1","7"
"","html-button-response","31","87402","0.0-31.0","7lp93h6rxn","2242.7999999999884"," ","1","6"
"","html-button-response","32","88736","0.0-32.0","7lp93h6rxn","1330.6000000011409"," ","0","4"
"","html-button-response","33","89557","0.0-33.0","7lp93h6rxn","817.6000000021304"," ","1","1"
"","html-button-response","34","92210","0.0-34.0","7lp93h6rxn","2648.9999999976135"," ","0","9"
"","html-button-response","35","93806","0.0-35.0","7lp93h6rxn","1592.3000000038883"," ","1","5"
"","html-button-response","36","94977","0.0-36.0","7lp93h6rxn","","","",""
"true","fullscreen","0","915036","0.0-0.0","j05axsu9nf","","","",""
"","html-button-response","1","916376","0.0-1.0","j05axsu9nf","1323.2999999964377"," ","1","9"
"","html-button-response","2","917311","0.0-2.0","j05axsu9nf","931.1999999990221"," ","1","6"
"","html-button-response","3","918421","0.0-3.0","j05axsu9nf","1106.7000000039116"," ","0","5"
"","html-button-response","4","919302","0.0-4.0","j05axsu9nf","877.3000000000466"," ","0","3"
"","html-button-response","5","920149","0.0-5.0","j05axsu9nf","843.3000000005122"," ","0","4"
"","html-button-response","6","920948","0.0-6.0","j05axsu9nf","794.9999999983702"," ","1","5"
"","html-button-response","7","921753","0.0-7.0","j05axsu9nf","801.7000000035623"," ","1","6"
"","html-button-response","8","922551","0.0-8.0","j05axsu9nf","794.9999999982538"," ","0","8"
"","html-button-response","9","923408","0.0-9.0","j05axsu9nf","853.9999999993015"," ","1","7"
"","html-button-response","10","924132","0.0-10.0","j05axsu9nf","720.399999998277"," ","0","2"
"","html-button-response","11","925061","0.0-11.0","j05axsu9nf","925.100000000326"," ","0","6"
"","html-button-response","12","925827","0.0-12.0","j05axsu9nf","763.3999999961816"," ","1","4"
"","html-button-response","13","926602","0.0-13.0","j05axsu9nf","771.5999999999767"," ","0","9"
"","html-button-response","14","927416","0.0-14.0","j05axsu9nf","810.4999999995343"," ","1","8"
"","html-button-response","15","928482","0.0-15.0","j05axsu9nf","1062.6000000047497"," ","1","5"
"","html-button-response","16","929189","0.0-16.0","j05axsu9nf","704.1000000026543"," ","0","7"
"","html-button-response","17","929883","0.0-17.0","j05axsu9nf","690.9999999989523"," ","1","9"
"","html-button-response","18","930698","0.0-18.0","j05axsu9nf","811.4999999962747"," ","0","7"
"","html-button-response","19","931513","0.0-19.0","j05axsu9nf","812.1000000027707"," ","0","5"
"","html-button-response","20","932254","0.0-20.0","j05axsu9nf","737.699999997858"," ","1","9"
"","html-button-response","21","932940","0.0-21.0","j05axsu9nf","682.999999997206"," ","1","4"
"","html-button-response","22","933761","0.0-22.0","j05axsu9nf","817.6999999996042"," ","0","8"
"","html-button-response","23","934463","0.0-23.0","j05axsu9nf","699.0999999979977"," ","1","2"
"","html-button-response","24","935190","0.0-24.0","j05axsu9nf","722.8000000031898"," ","0","4"
"","html-button-response","25","935980","0.0-25.0","j05axsu9nf","787.7000000007683"," ","1","6"
"","html-button-response","26","936759","0.0-26.0","j05axsu9nf","775.1999999963446"," ","0","8"
"","html-button-response","27","937435","0.0-27.0","j05axsu9nf","673.6999999994878"," ","1","9"
"","html-button-response","28","938209","0.0-28.0","j05axsu9nf","770.4999999987194"," ","1","5"
"","html-button-response","29","938951","0.0-29.0","j05axsu9nf","738.4999999995343"," ","0","6"
"","html-button-response","30","939610","0.0-30.0","j05axsu9nf","655.8000000003958"," ","1","7"
"","html-button-response","31","940401","0.0-31.0","j05axsu9nf","787.8999999957159"," ","1","6"
"","html-button-response","32","941156","0.0-32.0","j05axsu9nf","751.4000000009546"," ","0","4"
"","html-button-response","33","941879","0.0-33.0","j05axsu9nf","720.5000000030268"," ","0","2"
"","html-button-response","34","942713","0.0-34.0","j05axsu9nf","830.4999999963911"," ","0","9"
"","html-button-response","35","943445","0.0-35.0","j05axsu9nf","728.3000000024913"," ","1","5"
"","html-button-response","36","944183","0.0-36.0","j05axsu9nf","735.5999999999767"," ","0","8"
"","html-button-response","37","944851","0.0-37.0","j05axsu9nf","663.9999999969732"," ","1","3"
"","html-button-response","38","945626","0.0-38.0","j05axsu9nf","771.7999999950407"," ","1","7"
"","html-button-response","39","946349","0.0-39.0","j05axsu9nf","719.7999999988824"," ","0","9"
"","html-button-response","40","947017","0.0-40.0","j05axsu9nf","664.8999999961816"," ","1","8"
"","html-button-response","41","947725","0.0-41.0","j05axsu9nf","704.5999999972992"," ","0","6"
"","html-button-response","42","948485","0.0-42.0","j05axsu9nf","756.2000000034459"," ","0","5"
"","html-button-response","43","949265","0.0-43.0","j05axsu9nf","768.7000000005355"," ","0","7"
"","html-button-response","44","949910","0.0-44.0","j05axsu9nf","641.6000000026543"," ","1","5"
"","html-button-response","45","950571","0.0-45.0","j05axsu9nf","658.0000000030268"," ","1","9"
"","html-button-response","46","951260","0.0-46.0","j05axsu9nf","685.4000000020023"," ","0","4"
"","html-button-response","47","952017","0.0-47.0","j05axsu9nf","754.0999999982305"," ","0","9"
"","html-button-response","48","952662","0.0-48.0","j05axsu9nf","640.8999999985099"," ","1","8"
"","html-button-response","49","953532","0.0-49.0","j05axsu9nf","867.5000000002328"," ","1","4"
"","html-button-response","50","954201","0.0-50.0","j05axsu9nf","665.7000000049593"," ","1","6"
"","html-button-response","51","954895","0.0-51.0","j05axsu9nf","690.3999999994412"," ","0","5"
"","html-button-response","52","955716","0.0-52.0","j05axsu9nf","817.8000000042375"," ","0","9"
"","html-button-response","53","956514","0.0-53.0","j05axsu9nf","794.6000000010245"," ","0","5"
"","html-button-response","54","957141","0.0-54.0","j05axsu9nf","623.8000000012107"," ","1","2"
"","html-button-response","55","957849","0.0-55.0","j05axsu9nf","704.300000004936"," ","0","7"
"","html-button-response","56","958510","0.0-56.0","j05axsu9nf","658.6000000025379"," ","1","9"
"","html-button-response","57","959201","0.0-57.0","j05axsu9nf","687.5"," ","0","8"
"","html-button-response","58","959949","0.0-58.0","j05axsu9nf","745.1000000000931"," ","0","6"
"","html-button-response","59","960612","0.0-59.0","j05axsu9nf","659.2999999993481"," ","1","7"
"","html-button-response","60","961286","0.0-60.0","j05axsu9nf","670.5999999976484"," ","1","3"
"true","fullscreen","61","962289","0.0-61.0","j05axsu9nf","","","",""
"true","fullscreen","0","3570335","0.0-0.0","1w84znxqb0","","","",""
"","html-button-response","1","3571171","0.0-1.0","1w84znxqb0","821.4999999982538"," ","1","9"
"","html-button-response","2","3571957","0.0-2.0","1w84znxqb0","782.7000000034459"," ","1","6"
"","html-button-response","3","3573546","0.0-3.0","1w84znxqb0","1584.6000000019558"," ","0","5"
"","html-button-response","4","3582092","0.0-4.0","1w84znxqb0","8543.000000005122"," ","0","3"
"","html-button-response","5","3583148","0.0-5.0","1w84znxqb0","1052.1999999983236"," ","0","4"
"","html-button-response","6","3584009","0.0-6.0","1w84znxqb0","857.0000000036089"," ","1","5"
"","html-button-response","7","3584814","0.0-7.0","1w84znxqb0","801.3999999966472"," ","1","6"
"","html-button-response","8","3585674","0.0-8.0","1w84znxqb0","856.6000000063796"," ","0","8"
"","html-button-response","9","3586397","0.0-9.0","1w84znxqb0","719.6999999941327"," ","1","7"
"","html-button-response","10","3587074","0.0-10.0","1w84znxqb0","673.8999999943189"," ","0","2"
"","html-button-response","11","3588070","0.0-11.0","1w84znxqb0","992.3999999954831"," ","0","6"
"","html-button-response","12","3588873","0.0-12.0","1w84znxqb0","799.899999998277"," ","1","4"
"","html-button-response","13","3589668","0.0-13.0","1w84znxqb0","792.0999999988126"," ","0","9"
"","html-button-response","14","3590465","0.0-14.0","1w84znxqb0","793.4000000023516"," ","1","8"
"","html-button-response","15","3591193","0.0-15.0","1w84znxqb0","724.6999999987893"," ","1","5"
"","html-button-response","16","3591949","0.0-16.0","1w84znxqb0","752.6999999972759"," ","0","7"
"","html-button-response","17","3592694","0.0-17.0","1w84znxqb0","741.7999999962049"," ","1","9"
"","html-button-response","18","3593442","0.0-18.0","1w84znxqb0","745.5000000045402"," ","0","7"
"","html-button-response","19","3594928","0.0-19.0","1w84znxqb0","1481.8999999988591"," ","0","5"
"","html-button-response","20","3595809","0.0-20.0","1w84znxqb0","877.8000000019092"," ","1","9"
"","html-button-response","21","3596555","0.0-21.0","1w84znxqb0","742.5999999977648"," ","1","4"
"","html-button-response","22","3597301","0.0-22.0","1w84znxqb0","743.6000000014901"," ","0","8"
"","html-button-response","23","3598060","0.0-23.0","1w84znxqb0","755.099999994738"," ","1","2"
"","html-button-response","24","3598801","0.0-24.0","1w84znxqb0","738.6000000042841"," ","0","4"
"","html-button-response","25","3599595","0.0-25.0","1w84znxqb0","790.6999999976251"," ","1","6"
"","html-button-response","26","3601423","0.0-26.0","1w84znxqb0","1824.6999999973923"," ","0","8"
"","html-button-response","27","3602271","0.0-27.0","1w84znxqb0","844.3000000042375"," ","1","9"
"","html-button-response","28","3603282","0.0-28.0","1w84znxqb0","1007.6999999945983"," ","1","5"
"","html-button-response","29","3604718","0.0-29.0","1w84znxqb0","1432.2000000028638"," ","0","6"
"","html-button-response","30","3605498","0.0-30.0","1w84znxqb0","776.2999999977183"," ","1","7"
"","html-button-response","31","3606614","0.0-31.0","1w84znxqb0","1112.9000000001397"," ","1","6"
"","html-button-response","32","3607375","0.0-32.0","1w84znxqb0","758.2000000037951"," ","0","4"
"","html-button-response","33","3608107","0.0-33.0","1w84znxqb0","728.000000002794"," ","0","2"
"","html-button-response","34","3609016","0.0-34.0","1w84znxqb0","906.6000000020722"," ","0","9"
"","html-button-response","35","3609868","0.0-35.0","1w84znxqb0","848.2999999977183"," ","1","5"
"","html-button-response","36","3610847","0.0-36.0","1w84znxqb0","975.2999999981839"," ","0","8"
"","html-button-response","37","3611562","0.0-37.0","1w84znxqb0","711.8999999947846"," ","1","3"
"","html-button-response","38","3612654","0.0-38.0","1w84znxqb0","1088.5999999954365"," ","1","7"
"","html-button-response","39","3613393","0.0-39.0","1w84znxqb0","735.1999999955297"," ","0","9"
"","html-button-response","40","3614050","0.0-40.0","1w84znxqb0","654.0999999996275"," ","1","8"
"","html-button-response","41","3614773","0.0-41.0","1w84znxqb0","719.7000000014668"," ","0","6"
"","html-button-response","42","3615548","0.0-42.0","1w84znxqb0","770.1999999990221"," ","0","5"
"","html-button-response","43","3616397","0.0-43.0","1w84znxqb0","835.4000000035157"," ","0","7"
"","html-button-response","44","3617046","0.0-44.0","1w84znxqb0","645.599999996135"," ","1","5"
"","html-button-response","45","3617805","0.0-45.0","1w84znxqb0","756.599999993341"," ","1","9"
"","html-button-response","46","3618421","0.0-46.0","1w84znxqb0","610.800000002142"," ","0","4"
"","html-button-response","47","3619387","0.0-47.0","1w84znxqb0","960.7000000032131"," ","0","9"
"","html-button-response","48","3620187","0.0-48.0","1w84znxqb0","796.6000000014901"," ","1","8"
"","html-button-response","49","3621102","0.0-49.0","1w84znxqb0","912.2999999963213"," ","1","4"
"","html-button-response","50","3621883","0.0-50.0","1w84znxqb0","777.3000000016764"," ","1","6"
"","html-button-response","51","3623244","0.0-51.0","1w84znxqb0","1357.799999997951"," ","0","5"
"","html-button-response","52","3624162","0.0-52.0","1w84znxqb0","914.2000000064727"," ","0","9"
"","html-button-response","53","3625314","0.0-53.0","1w84znxqb0","1148.9999999975553"," ","0","5"
"","html-button-response","54","3626198","0.0-54.0","1w84znxqb0","880.1000000021886"," ","1","2"
"","html-button-response","55","3626950","0.0-55.0","1w84znxqb0","749.100000000908"," ","0","7"
"","html-button-response","56","3627714","0.0-56.0","1w84znxqb0","760.4999999967404"," ","1","9"
"","html-button-response","57","3628385","0.0-57.0","1w84znxqb0","667.8000000028405"," ","0","8"
"","html-button-response","58","3629198","0.0-58.0","1w84znxqb0","809.9000000002561"," ","1","5"
"","html-button-response","59","3630008","0.0-59.0","1w84znxqb0","806.9000000032829"," ","1","7"
"","html-button-response","60","3630336","0.0-60.0","1w84znxqb0","","","",""
"true","fullscreen","0","1964","0.0-0.0","nx64a91jo7","","","",""
"","html-button-response","1","3159","0.0-1.0","nx64a91jo7","1182.4999999953434"," ","1","9"
"","html-button-response","2","3905","0.0-2.0","nx64a91jo7","742.3999999882653"," ","1","6"
"","html-button-response","3","4712","0.0-3.0","nx64a91jo7","803.8999999989755"," ","0","5"
"","html-button-response","4","5555","0.0-4.0","nx64a91jo7","839.1000000119675"," ","0","3"
"","html-button-response","5","6287","0.0-5.0","nx64a91jo7","728.400000021793"," ","0","4"
"","html-button-response","6","6943","0.0-6.0","nx64a91jo7","652.799999981653"," ","1","5"
"","html-button-response","7","7642","0.0-7.0","nx64a91jo7","695.9000000206288"," ","1","6"
"","html-button-response","8","8328","0.0-8.0","nx64a91jo7","682.200000010198"," ","0","8"
"","html-button-response","9","8983","0.0-9.0","nx64a91jo7","651.400000002468"," ","1","7"
"","html-button-response","10","9691","0.0-10.0","nx64a91jo7","705.0000000162981"," ","0","2"
"","html-button-response","11","10516","0.0-11.0","nx64a91jo7","820.9999999962747"," ","0","6"
"","html-button-response","12","11226","0.0-12.0","nx64a91jo7","706.0000000055879"," ","1","4"
"","html-button-response","13","11914","0.0-13.0","nx64a91jo7","684.5000000030268"," ","0","9"
"","html-button-response","14","12597","0.0-14.0","nx64a91jo7","679.3999999936204"," ","1","8"
"","html-button-response","15","13270","0.0-15.0","nx64a91jo7","669.6000000229105"," ","1","5"
"","html-button-response","16","13971","0.0-16.0","nx64a91jo7","698.3000000182074"," ","0","7"
"","html-button-response","17","14623","0.0-17.0","nx64a91jo7","648.5999999858905"," ","1","9"
"","html-button-response","18","15304","0.0-18.0","nx64a91jo7","677.9999999853317"," ","0","7"
"","html-button-response","19","15999","0.0-19.0","nx64a91jo7","691.5999999910127"," ","0","5"
"","html-button-response","20","16633","0.0-20.0","nx64a91jo7","631.4999999885913"," ","1","9"
"","html-button-response","21","17368","0.0-21.0","nx64a91jo7","731.4999999944121"," ","1","4"
"","html-button-response","22","18007","0.0-22.0","nx64a91jo7","636.2000000081025"," ","0","8"
"","html-button-response","23","18667","0.0-23.0","nx64a91jo7","656.0999999928754"," ","1","2"
"","html-button-response","24","19307","0.0-24.0","nx64a91jo7","637.4000000068918"," ","0","4"
"","html-button-response","25","19947","0.0-25.0","nx64a91jo7","636.5999999979977"," ","1","6"
"","html-button-response","26","20605","0.0-26.0","nx64a91jo7","654.3000000237953"," ","0","8"
"","html-button-response","27","21238","0.0-27.0","nx64a91jo7","629.400000005262"," ","1","9"
"","html-button-response","28","22017","0.0-28.0","nx64a91jo7","776.6999999876134"," ","0","4"
"","html-button-response","29","22887","0.0-29.0","nx64a91jo7","866.1000000138301"," ","0","6"
"","html-button-response","30","23520","0.0-30.0","nx64a91jo7","630.7999999844469"," ","1","7"
"","html-button-response","31","24342","0.0-31.0","nx64a91jo7","818.5999999986961"," ","1","6"
"","html-button-response","32","25187","0.0-32.0","nx64a91jo7","841.3000000000466"," ","0","4"
"","html-button-response","33","26087","0.0-33.0","nx64a91jo7","897.1000000019558"," ","0","2"
"","html-button-response","34","26776","0.0-34.0","nx64a91jo7","686.3000000012107"," ","0","9"
"","html-button-response","35","27483","0.0-35.0","nx64a91jo7","703.6000000080094"," ","1","5"
"","html-button-response","36","28230","0.0-36.0","nx64a91jo7","743.6999999918044"," ","0","8"
"","html-button-response","37","29147","0.0-37.0","nx64a91jo7","913.9999999897555"," ","1","3"
"","html-button-response","38","29930","0.0-38.0","nx64a91jo7","779.500000004191"," ","0","6"
"","html-button-response","39","30831","0.0-39.0","nx64a91jo7","897.3000000114553"," ","0","9"
"","html-button-response","40","31539","0.0-40.0","nx64a91jo7","704.8999999824446"," ","1","8"
"","html-button-response","41","32260","0.0-41.0","nx64a91jo7","717.9000000178348"," ","0","6"
"","html-button-response","42","32980","0.0-42.0","nx64a91jo7","717.3000000184402"," ","0","5"
"","html-button-response","43","33711","0.0-43.0","nx64a91jo7","727.6000000128988"," ","0","7"
"","html-button-response","44","34375","0.0-44.0","nx64a91jo7","660.2999999886379"," ","1","5"
"","html-button-response","45","35140","0.0-45.0","nx64a91jo7","755.0000000046566"," ","1","9"
"","html-button-response","46","35856","0.0-46.0","nx64a91jo7","712.3999999894295"," ","0","4"
"","html-button-response","47","36616","0.0-47.0","nx64a91jo7","757.4000000022352"," ","0","9"
