"success","trial_type","trial_index","time_elapsed","internal_node_id","ID","rt","stimulus","button_pressed","button_pressed_text"
"true","fullscreen","0","21313","0.0-0.0","ura7dlrv8g","","","",""
"","html-button-response","1","22380","0.0-1.0-0.0","ura7dlrv8g","1040.8000000024913","<span class=stimul>à</span>","0","Correct"
"","html-button-response","2","22735","0.0-1.0-0.1","ura7dlrv8g","349.6000000013737","<span class=stimul>où</span>","0","Correct"
"","html-button-response","3","22986","0.0-1.0-0.2","ura7dlrv8g","246.99999999938882","<span class=stimul>la</span>","0","Correct"
"","html-button-response","4","23356","0.0-1.0-0.3","ura7dlrv8g","366.6000000011991","<span class=stimul>au</span>","0","Correct"
"","html-button-response","5","23796","0.0-1.0-0.4","ura7dlrv8g","436.8999999969674","<span class=stimul>tu</span>","0","Correct"
"","html-button-response","6","24215","0.0-1.0-0.5","ura7dlrv8g","415.499999999156","<span class=stimul>un</span>","0","Correct"
"","html-button-response","7","24637","0.0-1.0-0.6","ura7dlrv8g","417.9999999978463","<span class=stimul>il</span>","0","Correct"
"","html-button-response","8","25050","0.0-1.0-0.7","ura7dlrv8g","409.79999999763095","<span class=stimul>été</span>","0","Correct"
"","html-button-response","9","25468","0.0-1.0-0.8","ura7dlrv8g","414.9000000033993","<span class=stimul>on</span>","0","Correct"
"","html-button-response","10","25878","0.0-1.0-0.9","ura7dlrv8g","406.5999999984342","<span class=stimul>mur</span>","0","Correct"
"","html-button-response","11","26316","0.0-1.0-0.10","ura7dlrv8g","433.60000000029686","<span class=stimul>ni</span>","0","Correct"
"","html-button-response","12","26743","0.0-1.0-0.11","ura7dlrv8g","424.10000000018044","<span class=stimul>sur</span>","0","Correct"
"","html-button-response","13","27232","0.0-1.0-0.12","ura7dlrv8g","484.599999999773","<span class=stimul>qui</span>","0","Correct"
"","html-button-response","14","27680","0.0-1.0-0.13","ura7dlrv8g","444.99999999970896","<span class=stimul>vélo</span>","0","Correct"
"","html-button-response","15","28125","0.0-1.0-0.14","ura7dlrv8g","441.00000000253203","<span class=stimul>par</span>","0","Correct"
"","html-button-response","16","28579","0.0-1.0-0.15","ura7dlrv8g","450.89999999981956","<span class=stimul>feu</span>","0","Correct"
"","html-button-response","17","29473","0.0-1.0-0.16","ura7dlrv8g","890.400000000227","<span class=stimul>ce</span>","0","Correct"
"","html-button-response","18","30123","0.0-1.0-0.17","ura7dlrv8g","646.3000000003376","<span class=stimul>peur</span>","0","Correct"
"","html-button-response","19","30424","0.0-1.0-0.18","ura7dlrv8g","296.59999999785214","<span class=stimul>ami</span>","0","Correct"
"","html-button-response","20","30896","0.0-1.0-0.19","ura7dlrv8g","469.199999999546","<span class=stimul>moto</span>","0","Correct"
"","html-button-response","21","31364","0.0-1.0-0.20","ura7dlrv8g","464.4000000007509","<span class=stimul>peau</span>","0","Correct"
"","html-button-response","22","31832","0.0-1.0-0.21","ura7dlrv8g","464.3999999971129","<span class=stimul>lune</span>","0","Correct"
"","html-button-response","23","32236","0.0-1.0-0.22","ura7dlrv8g","399.80000000286964","<span class=stimul>gare</span>","0","Correct"
"","html-button-response","24","32613","0.0-1.0-0.23","ura7dlrv8g","373.70000000009895","<span class=stimul>lire</span>","0","Correct"
"","html-button-response","25","32983","0.0-1.0-0.24","ura7dlrv8g","367.2000000005937","<span class=stimul>bon</span>","0","Correct"
"","html-button-response","26","33419","0.0-1.0-0.25","ura7dlrv8g","431.80000000211294","<span class=stimul>mardi</span>","0","Correct"
"","html-button-response","27","33838","0.0-1.0-0.26","ura7dlrv8g","415.8000000024913","<span class=stimul>col</span>","0","Correct"
"","html-button-response","28","34356","0.0-1.0-0.27","ura7dlrv8g","514.2999999989115","<span class=stimul>avril</span>","0","Correct"
"","html-button-response","29","34899","0.0-1.0-0.28","ura7dlrv8g","539.3999999978405","<span class=stimul>roi</span>","0","Correct"
"","html-button-response","30","35277","0.0-1.0-0.29","ura7dlrv8g","373.8999999986845","<span class=stimul>faire</span>","0","Correct"
"","html-button-response","31","35769","0.0-1.0-0.30","ura7dlrv8g","488.9000000002852","<span class=stimul>facile</span>","0","Correct"
"","html-button-response","32","36133","0.0-1.0-0.31","ura7dlrv8g","360.80000000220025","<span class=stimul>cheval</span>","0","Correct"
"","html-button-response","33","36528","0.0-1.0-0.32","ura7dlrv8g","391.2000000018452","<span class=stimul>vrai</span>","0","Correct"
"","html-button-response","34","36983","0.0-1.0-0.33","ura7dlrv8g","450.3000000004249","<span class=stimul>ligne</span>","0","Correct"
"","html-button-response","35","37308","0.0-1.0-0.34","ura7dlrv8g","320.1999999982945","<span class=stimul>porte</span>","0","Correct"
"","html-button-response","36","37769","0.0-1.0-0.35","ura7dlrv8g","457.300000001851","<span class=stimul>autre</span>","0","Correct"
"","html-button-response","37","38075","0.0-1.0-0.36","ura7dlrv8g","302.80000000129803","<span class=stimul>loup</span>","0","Correct"
"","html-button-response","38","38423","0.0-1.0-0.37","ura7dlrv8g","343.4999999990396","<span class=stimul>soir</span>","0","Correct"
"","html-button-response","39","38798","0.0-1.0-0.38","ura7dlrv8g","371.90000000191503","<span class=stimul>page</span>","0","Correct"
"","html-button-response","40","39275","0.0-1.0-0.39","ura7dlrv8g","472.99999999813735","<span class=stimul>raisin</span>","0","Correct"
"","html-button-response","41","39687","0.0-1.0-0.40","ura7dlrv8g","408.1000000005588","<span class=stimul>car</span>","0","Correct"
"","html-button-response","42","40173","0.0-1.0-0.41","ura7dlrv8g","482.2999999996682","<span class=stimul>sucre</span>","0","Correct"
"","html-button-response","43","40558","0.0-1.0-0.42","ura7dlrv8g","381.600000000617","<span class=stimul>chat</span>","0","Correct"
"","html-button-response","44","40936","0.0-1.0-0.43","ura7dlrv8g","374.7000000003027","<span class=stimul>matin</span>","0","Correct"
"","html-button-response","45","41292","0.0-1.0-0.44","ura7dlrv8g","352.39999999976135","<span class=stimul>trésor</span>","0","Correct"
"","html-button-response","46","41742","0.0-1.0-0.45","ura7dlrv8g","446.19999999849824","<span class=stimul>soixante</span>","0","Correct"
"","html-button-response","47","42477","0.0-1.0-0.46","ura7dlrv8g","730.7000000000698","<span class=stimul>lundi</span>","0","Correct"
"","html-button-response","48","43206","0.0-1.0-0.47","ura7dlrv8g","723.60000000117","<span class=stimul>rose</span>","0","Correct"
"","html-button-response","49","43716","0.0-1.0-0.48","ura7dlrv8g","506.600000000617","<span class=stimul>visage</span>","0","Correct"
"","html-button-response","50","44414","0.0-1.0-0.49","ura7dlrv8g","694.5999999988999","<span class=stimul>six</span>","0","Correct"
"","html-button-response","51","45778","0.0-1.0-0.50","ura7dlrv8g","1359.7999999983585","<span class=stimul>ciseau</span>","0","Correct"
"","html-button-response","52","46295","0.0-1.0-0.51","ura7dlrv8g","513.2999999987078","<span class=stimul>août</span>","0","Correct"
"","html-button-response","53","47250","0.0-1.0-0.52","ura7dlrv8g","951.7000000014377","<span class=stimul>pays</span>","0","Correct"
"","html-button-response","54","47473","0.0-1.0-0.53","ura7dlrv8g","219.4000000017695","<span class=stimul>balai</span>","0","Correct"
"","html-button-response","55","47793","0.0-1.0-0.54","ura7dlrv8g","316.2000000011176","<span class=stimul>fille</span>","0","Correct"
"","html-button-response","56","48219","0.0-1.0-0.55","ura7dlrv8g","422.59999999805586","<span class=stimul>sept</span>","0","Correct"
"","html-button-response","57","48479","0.0-1.0-0.56","ura7dlrv8g","257.29999999748543","<span class=stimul>lourd</span>","0","Correct"
"","html-button-response","58","48620","0.0-1.0-0.57","ura7dlrv8g","137.60000000183936","<span class=stimul>femme</span>","0","Correct"
"","html-button-response","59","49068","0.0-1.0-0.58","ura7dlrv8g","444.29999999920256","<span class=stimul>garage</span>","0","Correct"
"","html-button-response","60","49339","0.0-1.0-0.59","ura7dlrv8g","267.80000000144355","<span class=stimul>hibou</span>","0","Correct"
"true","fullscreen","61","50342","0.0-2.0","ura7dlrv8g","","","",""
"true","fullscreen","0","14234","0.0-0.0","0hnp5whqf3","","","",""
"","html-button-response","1","15235","0.0-1.0-0.0","0hnp5whqf3","972.0000000015716","<span class=stimul>à</span>","0","Correct"
"","html-button-response","2","15580","0.0-1.0-0.1","0hnp5whqf3","340.5999999959022","<span class=stimul>où</span>","0","Correct"
"","html-button-response","3","15819","0.0-1.0-0.2","0hnp5whqf3","236.00000000442378","<span class=stimul>la</span>","0","Correct"
"","html-button-response","4","16040","0.0-1.0-0.3","0hnp5whqf3","218.0000000007567","<span class=stimul>au</span>","0","Correct"
"","html-button-response","5","16264","0.0-1.0-0.4","0hnp5whqf3","220.00000000116415","<span class=stimul>tu</span>","0","Correct"
"","html-button-response","6","16518","0.0-1.0-0.5","0hnp5whqf3","251.4000000010128","<span class=stimul>un</span>","0","Correct"
"","html-button-response","7","16774","0.0-1.0-0.6","0hnp5whqf3","252.39999999757856","<span class=stimul>il</span>","0","Correct"
"","html-button-response","8","17030","0.0-1.0-0.7","0hnp5whqf3","252.79999999474967","<span class=stimul>été</span>","0","Correct"
"","html-button-response","9","17293","0.0-1.0-0.8","0hnp5whqf3","259.5999999975902","<span class=stimul>on</span>","0","Correct"
"","html-button-response","10","17555","0.0-1.0-0.9","0hnp5whqf3","259.2000000004191","<span class=stimul>mur</span>","0","Correct"
"","html-button-response","11","17845","0.0-1.0-0.10","0hnp5whqf3","287.60000000329455","<span class=stimul>ni</span>","0","Correct"
"","html-button-response","12","18108","0.0-1.0-0.11","0hnp5whqf3","259.5000000001164","<span class=stimul>sur</span>","0","Correct"
"","html-button-response","13","18387","0.0-1.0-0.12","0hnp5whqf3","276.400000002468","<span class=stimul>qui</span>","0","Correct"
"","html-button-response","14","18684","0.0-1.0-0.13","0hnp5whqf3","293.7000000019907","<span class=stimul>vélo</span>","0","Correct"
"","html-button-response","15","18982","0.0-1.0-0.14","0hnp5whqf3","294.30000000138534","<span class=stimul>par</span>","0","Correct"
"","html-button-response","16","19287","0.0-1.0-0.15","0hnp5whqf3","302.5000000052387","<span class=stimul>feu</span>","0","Correct"
"","html-button-response","17","19704","0.0-1.0-0.16","0hnp5whqf3","412.70000000076834","<span class=stimul>ce</span>","0","Correct"
"","html-button-response","18","20003","0.0-1.0-0.17","0hnp5whqf3","296.19999999704305","<span class=stimul>peur</span>","0","Correct"
"","html-button-response","19","20396","0.0-1.0-0.18","0hnp5whqf3","389.6999999997206","<span class=stimul>ami</span>","0","Correct"
"","html-button-response","20","20691","0.0-1.0-0.19","0hnp5whqf3","291.1999999996624","<span class=stimul>moto</span>","0","Correct"
"","html-button-response","21","21120","0.0-1.0-0.20","0hnp5whqf3","426.39999999664724","<span class=stimul>peau</span>","0","Correct"
"","html-button-response","22","21507","0.0-1.0-0.21","0hnp5whqf3","383.9000000007218","<span class=stimul>lune</span>","0","Correct"
"","html-button-response","23","21879","0.0-1.0-0.22","0hnp5whqf3","368.60000000160653","<span class=stimul>gare</span>","0","Correct"
"","html-button-response","24","22265","0.0-1.0-0.23","0hnp5whqf3","381.7999999955646","<span class=stimul>lire</span>","0","Correct"
"","html-button-response","25","22786","0.0-1.0-0.24","0hnp5whqf3","517.8000000014435","<span class=stimul>bon</span>","0","Correct"
"","html-button-response","26","23161","0.0-1.0-0.25","0hnp5whqf3","371.50000000110595","<span class=stimul>mardi</span>","0","Correct"
"","html-button-response","27","23507","0.0-1.0-0.26","0hnp5whqf3","343.0000000007567","<span class=stimul>col</span>","0","Correct"
"","html-button-response","28","23844","0.0-1.0-0.27","0hnp5whqf3","332.8999999939697","<span class=stimul>avril</span>","0","Correct"
"","html-button-response","29","24231","0.0-1.0-0.28","0hnp5whqf3","383.0999999991036","<span class=stimul>roi</span>","0","Correct"
"","html-button-response","30","24757","0.0-1.0-0.29","0hnp5whqf3","522.6000000038766","<span class=stimul>faire</span>","0","Correct"
"","html-button-response","31","25135","0.0-1.0-0.30","0hnp5whqf3","374.79999999777647","<span class=stimul>facile</span>","0","Correct"
"","html-button-response","32","25613","0.0-1.0-0.31","0hnp5whqf3","474.6000000013737","<span class=stimul>cheval</span>","0","Correct"
"","html-button-response","33","26024","0.0-1.0-0.32","0hnp5whqf3","407.6999999961117","<span class=stimul>vrai</span>","0","Correct"
"","html-button-response","34","26410","0.0-1.0-0.33","0hnp5whqf3","382.7000000019325","<span class=stimul>ligne</span>","0","Correct"
"","html-button-response","35","26847","0.0-1.0-0.34","0hnp5whqf3","433.099999994738","<span class=stimul>porte</span>","0","Correct"
"","html-button-response","36","27102","0.0-1.0-0.35","0hnp5whqf3","251.4000000010128","<span class=stimul>autre</span>","0","Correct"
"","html-button-response","37","27472","0.0-1.0-0.36","0hnp5whqf3","366.6000000011991","<span class=stimul>loup</span>","0","Correct"
"","html-button-response","38","27825","0.0-1.0-0.37","0hnp5whqf3","350.10000000329455","<span class=stimul>soir</span>","0","Correct"
"","html-button-response","39","28163","0.0-1.0-0.38","0hnp5whqf3","334.39999999973224","<span class=stimul>page</span>","0","Correct"
"","html-button-response","40","28524","0.0-1.0-0.39","0hnp5whqf3","357.7000000004773","<span class=stimul>raisin</span>","0","Correct"
"","html-button-response","41","28895","0.0-1.0-0.40","0hnp5whqf3","367.40000000281725","<span class=stimul>car</span>","0","Correct"
"","html-button-response","42","29225","0.0-1.0-0.41","0hnp5whqf3","325.6000000037602","<span class=stimul>sucre</span>","0","Correct"
"","html-button-response","43","29595","0.0-1.0-0.42","0hnp5whqf3","366.39999999897555","<span class=stimul>chat</span>","0","Correct"
"","html-button-response","44","29939","0.0-1.0-0.43","0hnp5whqf3","340.7000000006519","<span class=stimul>matin</span>","0","Correct"
"","html-button-response","45","30400","0.0-1.0-0.44","0hnp5whqf3","457.09999999962747","<span class=stimul>trésor</span>","0","Correct"
"","html-button-response","46","30795","0.0-1.0-0.45","0hnp5whqf3","391.60000000265427","<span class=stimul>soixante</span>","0","Correct"
"","html-button-response","47","31215","0.0-1.0-0.46","0hnp5whqf3","416.2999999971362","<span class=stimul>lundi</span>","0","Correct"
"","html-button-response","48","31552","0.0-1.0-0.47","0hnp5whqf3","333.39999999589054","<span class=stimul>rose</span>","0","Correct"
"","html-button-response","49","31964","0.0-1.0-0.48","0hnp5whqf3","408.1999999980326","<span class=stimul>visage</span>","0","Correct"
"","html-button-response","50","32318","0.0-1.0-0.49","0hnp5whqf3","351.0999999998603","<span class=stimul>six</span>","0","Correct"
"","html-button-response","51","32893","0.0-1.0-0.50","0hnp5whqf3","571.1999999984982","<span class=stimul>ciseau</span>","0","Correct"
"","html-button-response","52","33090","0.0-1.0-0.51","0hnp5whqf3","193.59999999869615","<span class=stimul>août</span>","0","Correct"
"","html-button-response","53","33379","0.0-1.0-0.52","0hnp5whqf3","286.2999999997555","<span class=stimul>pays</span>","0","Correct"
"","html-button-response","54","33576","0.0-1.0-0.53","0hnp5whqf3","193.00000000657747","<span class=stimul>balai</span>","0","Correct"
"","html-button-response","55","33800","0.0-1.0-0.54","0hnp5whqf3","220.80000000278233","<span class=stimul>fille</span>","0","Correct"
"","html-button-response","56","34040","0.0-1.0-0.55","0hnp5whqf3","237.1999999959371","<span class=stimul>sept</span>","0","Correct"
"","html-button-response","57","34267","0.0-1.0-0.56","0hnp5whqf3","223.599999997532","<span class=stimul>lourd</span>","0","Correct"
"","html-button-response","58","34685","0.0-1.0-0.57","0hnp5whqf3","414.0999999945052","<span class=stimul>femme</span>","0","Correct"
"","html-button-response","59","34843","0.0-1.0-0.58","0hnp5whqf3","155.39999999600695","<span class=stimul>garage</span>","0","Correct"
"","html-button-response","60","35031","0.0-1.0-0.59","0hnp5whqf3","184.1000000058557","<span class=stimul>hibou</span>","0","Correct"
"true","fullscreen","61","36035","0.0-2.0","0hnp5whqf3","","","",""
"true","fullscreen","0","2627","0.0-0.0","h1p2lo4m6b","","","",""
"","html-button-response","1","5545","0.0-1.0-0.0","h1p2lo4m6b","2891.199999998207","<span class=stimul>à</span>","0","Correct"
"","html-button-response","2","6282","0.0-1.0-0.1","h1p2lo4m6b","732.4999999982538","<span class=stimul>où</span>","0","Correct"
"","html-button-response","3","6900","0.0-1.0-0.2","h1p2lo4m6b","614.3000000010943","<span class=stimul>la</span>","0","Correct"
"","html-button-response","4","7575","0.0-1.0-0.3","h1p2lo4m6b","671.3000000017928","<span class=stimul>au</span>","0","Correct"
"","html-button-response","5","8006","0.0-1.0-0.4","h1p2lo4m6b","426.9999999960419","<span class=stimul>tu</span>","0","Correct"
"","html-button-response","6","8829","0.0-1.0-0.5","h1p2lo4m6b","820.1000000044587","<span class=stimul>un</span>","0","Correct"
"","html-button-response","7","9277","0.0-1.0-0.6","h1p2lo4m6b","444.4000000003143","<span class=stimul>il</span>","0","Correct"
"","html-button-response","8","9722","0.0-1.0-0.7","h1p2lo4m6b","441.899999997986","<span class=stimul>été</span>","0","Correct"
"","html-button-response","9","11007","0.0-1.0-0.8","h1p2lo4m6b","1281.3999999998487","<span class=stimul>on</span>","0","Correct"
"","html-button-response","10","11518","0.0-1.0-0.9","h1p2lo4m6b","507.10000000253785","<span class=stimul>mur</span>","0","Correct"
"","html-button-response","11","11995","0.0-1.0-0.10","h1p2lo4m6b","473.39999999530846","<span class=stimul>ni</span>","0","Correct"
"","html-button-response","12","12515","0.0-1.0-0.11","h1p2lo4m6b","516.300000002957","<span class=stimul>sur</span>","0","Correct"
"","html-button-response","13","13075","0.0-1.0-0.12","h1p2lo4m6b","557.0999999981723","<span class=stimul>qui</span>","0","Correct"
"","html-button-response","14","13554","0.0-1.0-0.13","h1p2lo4m6b","474.80000000359723","<span class=stimul>vélo</span>","0","Correct"
"","html-button-response","15","14066","0.0-1.0-0.14","h1p2lo4m6b","508.30000000132713","<span class=stimul>par</span>","0","Correct"
"","html-button-response","16","14551","0.0-1.0-0.15","h1p2lo4m6b","482.10000000108266","<span class=stimul>feu</span>","0","Correct"
"","html-button-response","17","15062","0.0-1.0-0.16","h1p2lo4m6b","507.29999999748543","<span class=stimul>ce</span>","0","Correct"
"","html-button-response","18","15558","0.0-1.0-0.17","h1p2lo4m6b","492.50000000029104","<span class=stimul>peur</span>","0","Correct"
"","html-button-response","19","16042","0.0-1.0-0.18","h1p2lo4m6b","480.4999999978463","<span class=stimul>ami</span>","0","Correct"
"","html-button-response","20","16554","0.0-1.0-0.19","h1p2lo4m6b","508.20000000385335","<span class=stimul>moto</span>","0","Correct"
"","html-button-response","21","17106","0.0-1.0-0.20","h1p2lo4m6b","548.6999999993714","<span class=stimul>peau</span>","0","Correct"
"","html-button-response","22","17697","0.0-1.0-0.21","h1p2lo4m6b","587.8999999986263","<span class=stimul>lune</span>","0","Correct"
"","html-button-response","23","18207","0.0-1.0-0.22","h1p2lo4m6b","506.5000000031432","<span class=stimul>gare</span>","0","Correct"
"","html-button-response","24","18761","0.0-1.0-0.23","h1p2lo4m6b","549.6000000057393","<span class=stimul>lire</span>","0","Correct"
"","html-button-response","25","19290","0.0-1.0-0.24","h1p2lo4m6b","525.6000000008498","<span class=stimul>bon</span>","0","Correct"
"","html-button-response","26","19811","0.0-1.0-0.25","h1p2lo4m6b","517.2999999995227","<span class=stimul>mardi</span>","0","Correct"
"","html-button-response","27","20746","0.0-1.0-0.26","h1p2lo4m6b","932.3000000003958","<span class=stimul>col</span>","0","Correct"
"","html-button-response","28","21580","0.0-1.0-0.27","h1p2lo4m6b","829.8999999969965","<span class=stimul>avril</span>","0","Correct"
"","html-button-response","29","22221","0.0-1.0-0.28","h1p2lo4m6b","637.3999999996158","<span class=stimul>roi</span>","0","Correct"
"","html-button-response","30","22717","0.0-1.0-0.29","h1p2lo4m6b","492.70000000251457","<span class=stimul>faire</span>","0","Correct"
"","html-button-response","31","23302","0.0-1.0-0.30","h1p2lo4m6b","581.6000000049826","<span class=stimul>facile</span>","0","Correct"
"","html-button-response","32","23945","0.0-1.0-0.31","h1p2lo4m6b","638.5999999984051","<span class=stimul>cheval</span>","0","Correct"
"","html-button-response","33","24555","0.0-1.0-0.32","h1p2lo4m6b","607.3000000033062","<span class=stimul>vrai</span>","0","Correct"
"","html-button-response","34","25216","0.0-1.0-0.33","h1p2lo4m6b","656.5999999947962","<span class=stimul>ligne</span>","0","Correct"
"","html-button-response","35","25782","0.0-1.0-0.34","h1p2lo4m6b","562.4000000025262","<span class=stimul>porte</span>","0","Correct"
"","html-button-response","36","26351","0.0-1.0-0.35","h1p2lo4m6b","565.6999999991967","<span class=stimul>autre</span>","0","Correct"
"","html-button-response","37","27075","0.0-1.0-0.36","h1p2lo4m6b","720.500000003085","<span class=stimul>loup</span>","0","Correct"
"","html-button-response","38","27634","0.0-1.0-0.37","h1p2lo4m6b","555.5999999996857","<span class=stimul>soir</span>","0","Correct"
"","html-button-response","39","28244","0.0-1.0-0.38","h1p2lo4m6b","605.5999999953201","<span class=stimul>page</span>","0","Correct"
"","html-button-response","40","28919","0.0-1.0-0.39","h1p2lo4m6b","671.3000000017928","<span class=stimul>raisin</span>","0","Correct"
"","html-button-response","41","29592","0.0-1.0-0.40","h1p2lo4m6b","669.6999999985565","<span class=stimul>car</span>","0","Correct"
"","html-button-response","42","30391","0.0-1.0-0.41","h1p2lo4m6b","794.7000000058324","<span class=stimul>sucre</span>","0","Correct"
"","html-button-response","43","31931","0.0-1.0-0.42","h1p2lo4m6b","1536.2999999997555","<span class=stimul>chat</span>","0","Correct"
"","html-button-response","44","33143","0.0-1.0-0.43","h1p2lo4m6b","1208.599999998114","<span class=stimul>matin</span>","0","Correct"
"","html-button-response","45","34981","0.0-1.0-0.44","h1p2lo4m6b","1833.60000000539","<span class=stimul>trésor</span>","0","Correct"
"","html-button-response","46","35491","0.0-1.0-0.45","h1p2lo4m6b","506.9999999977881","<span class=stimul>soixante</span>","0","Correct"
"","html-button-response","47","36056","0.0-1.0-0.46","h1p2lo4m6b","560.9000000040396","<span class=stimul>lundi</span>","0","Correct"
"","html-button-response","48","36682","0.0-1.0-0.47","h1p2lo4m6b","622.4999999976717","<span class=stimul>rose</span>","0","Correct"
"","html-button-response","49","37234","0.0-1.0-0.48","h1p2lo4m6b","548.9000000015949","<span class=stimul>visage</span>","0","Correct"
"","html-button-response","50","37816","0.0-1.0-0.49","h1p2lo4m6b","578.3000000010361","<span class=stimul>six</span>","0","Correct"
"","html-button-response","51","38444","0.0-1.0-0.50","h1p2lo4m6b","623.4000000040396","<span class=stimul>ciseau</span>","0","Correct"
"","html-button-response","52","39003","0.0-1.0-0.51","h1p2lo4m6b","555.899999999383","<span class=stimul>août</span>","0","Correct"
"","html-button-response","53","39561","0.0-1.0-0.52","h1p2lo4m6b","554.1999999986729","<span class=stimul>pays</span>","0","Correct"
"","html-button-response","54","40088","0.0-1.0-0.53","h1p2lo4m6b","522.8000000061002","<span class=stimul>balai</span>","0","Correct"
"","html-button-response","55","40633","0.0-1.0-0.54","h1p2lo4m6b","542.0999999987544","<span class=stimul>fille</span>","0","Correct"
"","html-button-response","56","41242","0.0-1.0-0.55","h1p2lo4m6b","605.7000000000698","<span class=stimul>sept</span>","0","Correct"
"","html-button-response","57","41786","0.0-1.0-0.56","h1p2lo4m6b","540.3000000005704","<span class=stimul>lourd</span>","0","Correct"
"","html-button-response","58","42371","0.0-1.0-0.57","h1p2lo4m6b","580.9000000008382","<span class=stimul>femme</span>","0","Correct"
"","html-button-response","59","42899","0.0-1.0-0.58","h1p2lo4m6b","524.7999999992317","<span class=stimul>garage</span>","0","Correct"
"","html-button-response","60","43507","0.0-1.0-0.59","h1p2lo4m6b","604.3999999965308","<span class=stimul>hibou</span>","0","Correct"
"true","fullscreen","61","44510","0.0-2.0","h1p2lo4m6b","","","",""
"true","fullscreen","0","5418","0.0-0.0","on5ptksff6","","","",""
"","html-button-response","1","6410","0.0-1.0-0.0","on5ptksff6","974.3000000016764","<span class=stimul>à</span>","0","Correct"
"","html-button-response","2","6894","0.0-1.0-0.1","on5ptksff6","476.79999999672873","<span class=stimul>où</span>","0","Correct"
"","html-button-response","3","7321","0.0-1.0-0.2","on5ptksff6","422.90000000502914","<span class=stimul>la</span>","0","Correct"
"","html-button-response","4","7756","0.0-1.0-0.3","on5ptksff6","431.30000000383006","<span class=stimul>au</span>","0","Correct"
"","html-button-response","5","8148","0.0-1.0-0.4","on5ptksff6","388.89999999810243","<span class=stimul>tu</span>","0","Correct"
"","html-button-response","6","8556","0.0-1.0-0.5","on5ptksff6","403.99999999499414","<span class=stimul>un</span>","0","Correct"
"","html-button-response","7","9007","0.0-1.0-0.6","on5ptksff6","447.79999999445863","<span class=stimul>il</span>","0","Correct"
"","html-button-response","8","9449","0.0-1.0-0.7","on5ptksff6","438.5000000038417","<span class=stimul>été</span>","0","Correct"
"","html-button-response","9","9930","0.0-1.0-0.8","on5ptksff6","477.5000000008731","<span class=stimul>on</span>","0","Correct"
"","html-button-response","10","10430","0.0-1.0-0.9","on5ptksff6","496.2000000014086","<span class=stimul>mur</span>","0","Correct"
"","html-button-response","11","10922","0.0-1.0-0.10","on5ptksff6","488.79999999917345","<span class=stimul>ni</span>","0","Correct"
"","html-button-response","12","11374","0.0-1.0-0.11","on5ptksff6","447.8000000017346","<span class=stimul>sur</span>","0","Correct"
"","html-button-response","13","11873","0.0-1.0-0.12","on5ptksff6","496.10000000393484","<span class=stimul>qui</span>","0","Correct"
"","html-button-response","14","12373","0.0-1.0-0.13","on5ptksff6","496.3999999963562","<span class=stimul>vélo</span>","0","Correct"
"","html-button-response","15","12898","0.0-1.0-0.14","on5ptksff6","520.9000000031665","<span class=stimul>par</span>","0","Correct"
"","html-button-response","16","13432","0.0-1.0-0.15","on5ptksff6","530.7000000029802","<span class=stimul>feu</span>","0","Correct"
"","html-button-response","17","13905","0.0-1.0-0.16","on5ptksff6","468.99999999732245","<span class=stimul>ce</span>","0","Correct"
"","html-button-response","18","14642","0.0-1.0-0.17","on5ptksff6","733.5999999995693","<span class=stimul>peur</span>","0","Correct"
"","html-button-response","19","15223","0.0-1.0-0.18","on5ptksff6","577.2999999971944","<span class=stimul>ami</span>","0","Correct"
"","html-button-response","20","15707","0.0-1.0-0.19","on5ptksff6","480.199999998149","<span class=stimul>moto</span>","0","Correct"
"","html-button-response","21","16310","0.0-1.0-0.20","on5ptksff6","600.2000000007683","<span class=stimul>peau</span>","0","Correct"
"","html-button-response","22","16794","0.0-1.0-0.21","on5ptksff6","480.199999998149","<span class=stimul>lune</span>","0","Correct"
"","html-button-response","23","17251","0.0-1.0-0.22","on5ptksff6","454.39999999507563","<span class=stimul>gare</span>","0","Correct"
"","html-button-response","24","17710","0.0-1.0-0.23","on5ptksff6","455.5000000036671","<span class=stimul>lire</span>","0","Correct"
"","html-button-response","25","18184","0.0-1.0-0.24","on5ptksff6","470.09999999863794","<span class=stimul>bon</span>","0","Correct"
"","html-button-response","26","18814","0.0-1.0-0.25","on5ptksff6","626.4999999984866","<span class=stimul>mardi</span>","0","Correct"
"","html-button-response","27","19427","0.0-1.0-0.26","on5ptksff6","609.4000000011874","<span class=stimul>col</span>","0","Correct"
"","html-button-response","28","19862","0.0-1.0-0.27","on5ptksff6","431.10000000160653","<span class=stimul>avril</span>","0","Correct"
"","html-button-response","29","20354","0.0-1.0-0.28","on5ptksff6","488.79999999917345","<span class=stimul>roi</span>","0","Correct"
"","html-button-response","30","20853","0.0-1.0-0.29","on5ptksff6","496.19999999413267","<span class=stimul>faire</span>","0","Correct"
"","html-button-response","31","21296","0.0-1.0-0.30","on5ptksff6","439.20000000071013","<span class=stimul>facile</span>","0","Correct"
"","html-button-response","32","21731","0.0-1.0-0.31","on5ptksff6","431.10000000160653","<span class=stimul>cheval</span>","0","Correct"
"","html-button-response","33","22197","0.0-1.0-0.32","on5ptksff6","462.69999999640277","<span class=stimul>vrai</span>","0","Correct"
"","html-button-response","34","22687","0.0-1.0-0.33","on5ptksff6","486.39999999431893","<span class=stimul>ligne</span>","0","Correct"
"","html-button-response","35","23399","0.0-1.0-0.34","on5ptksff6","708.5999999981141","<span class=stimul>porte</span>","0","Correct"
"","html-button-response","36","23946","0.0-1.0-0.35","on5ptksff6","543.2999999975436","<span class=stimul>autre</span>","0","Correct"
"","html-button-response","37","25027","0.0-1.0-0.36","on5ptksff6","1077.8000000063912","<span class=stimul>loup</span>","0","Correct"
"","html-button-response","38","25903","0.0-1.0-0.37","on5ptksff6","871.5999999985797","<span class=stimul>soir</span>","0","Correct"
"","html-button-response","39","26474","0.0-1.0-0.38","on5ptksff6","567.1999999976833","<span class=stimul>page</span>","0","Correct"
"","html-button-response","40","27314","0.0-1.0-0.39","on5ptksff6","836.7999999973108","<span class=stimul>raisin</span>","0","Correct"
"","html-button-response","41","27838","0.0-1.0-0.40","on5ptksff6","520.3000000037719","<span class=stimul>car</span>","0","Correct"
"","html-button-response","42","28312","0.0-1.0-0.41","on5ptksff6","469.8999999964144","<span class=stimul>sucre</span>","0","Correct"
"","html-button-response","43","29106","0.0-1.0-0.42","on5ptksff6","789.2999999967287","<span class=stimul>chat</span>","0","Correct"
"","html-button-response","44","29631","0.0-1.0-0.43","on5ptksff6","521.4999999952852","<span class=stimul>matin</span>","0","Correct"
"","html-button-response","45","30118","0.0-1.0-0.44","on5ptksff6","483.700000004319","<span class=stimul>trésor</span>","0","Correct"
"","html-button-response","46","30633","0.0-1.0-0.45","on5ptksff6","510.999999998603","<span class=stimul>soixante</span>","0","Correct"
"","html-button-response","47","31132","0.0-1.0-0.46","on5ptksff6","495.49999999726424","<span class=stimul>lundi</span>","0","Correct"
"","html-button-response","48","31631","0.0-1.0-0.47","on5ptksff6","495.6999999994878","<span class=stimul>rose</span>","0","Correct"
"","html-button-response","49","32122","0.0-1.0-0.48","on5ptksff6","487.0999999984633","<span class=stimul>visage</span>","0","Correct"
"","html-button-response","50","32637","0.0-1.0-0.49","on5ptksff6","511.20000000082655","<span class=stimul>six</span>","0","Correct"
"","html-button-response","51","33226","0.0-1.0-0.50","on5ptksff6","585.8999999982188","<span class=stimul>ciseau</span>","0","Correct"
"","html-button-response","52","33786","0.0-1.0-0.51","on5ptksff6","555.899999999383","<span class=stimul>août</span>","0","Correct"
"","html-button-response","53","34241","0.0-1.0-0.52","on5ptksff6","451.30000000062864","<span class=stimul>pays</span>","0","Correct"
"","html-button-response","54","34766","0.0-1.0-0.53","on5ptksff6","521.6000000000349","<span class=stimul>balai</span>","0","Correct"
"","html-button-response","55","35234","0.0-1.0-0.54","on5ptksff6","465.1000000012573","<span class=stimul>fille</span>","0","Correct"
"","html-button-response","56","35691","0.0-1.0-0.55","on5ptksff6","452.9999999940628","<span class=stimul>sept</span>","0","Correct"
"","html-button-response","57","36108","0.0-1.0-0.56","on5ptksff6","413.2000000026892","<span class=stimul>lourd</span>","0","Correct"
"","html-button-response","58","36606","0.0-1.0-0.57","on5ptksff6","494.69999999564607","<span class=stimul>femme</span>","0","Correct"
"","html-button-response","59","37015","0.0-1.0-0.58","on5ptksff6","404.60000000166474","<span class=stimul>garage</span>","0","Correct"
"","html-button-response","60","37556","0.0-1.0-0.59","on5ptksff6","537.6000000032946","<span class=stimul>hibou</span>","0","Correct"
"true","fullscreen","61","38561","0.0-2.0","on5ptksff6","","","",""
"true","fullscreen","0","10911","0.0-0.0","x2kop93z1j","","","",""
"","html-button-response","1","11843","0.0-1.0-0.0","x2kop93z1j","903.5000000003492","<span class=stimul>à</span>","0","Correct"
"","html-button-response","2","12276","0.0-1.0-0.1","x2kop93z1j","428.49999999816646","<span class=stimul>où</span>","0","Correct"
"","html-button-response","3","12723","0.0-1.0-0.2","x2kop93z1j","442.50000000101863","<span class=stimul>la</span>","0","Correct"
"","html-button-response","4","13190","0.0-1.0-0.3","x2kop93z1j","463.10000000084983","<span class=stimul>au</span>","0","Correct"
"","html-button-response","5","13584","0.0-1.0-0.4","x2kop93z1j","388.39999999981956","<span class=stimul>tu</span>","0","Correct"
"","html-button-response","6","14022","0.0-1.0-0.5","x2kop93z1j","434.00000000110595","<span class=stimul>un</span>","0","Correct"
"","html-button-response","7","14411","0.0-1.0-0.6","x2kop93z1j","385.09999999951106","<span class=stimul>il</span>","0","Correct"
"","html-button-response","8","14802","0.0-1.0-0.7","x2kop93z1j","387.0000000024447","<span class=stimul>été</span>","0","Correct"
"","html-button-response","9","15276","0.0-1.0-0.8","x2kop93z1j","469.9999999975262","<span class=stimul>on</span>","0","Correct"
"","html-button-response","10","15659","0.0-1.0-0.9","x2kop93z1j","378.89999999970314","<span class=stimul>mur</span>","0","Correct"
"","html-button-response","11","16068","0.0-1.0-0.10","x2kop93z1j","404.500000000553","<span class=stimul>ni</span>","0","Correct"
"","html-button-response","12","16494","0.0-1.0-0.11","x2kop93z1j","422.5000000005821","<span class=stimul>sur</span>","0","Correct"
"","html-button-response","13","16920","0.0-1.0-0.12","x2kop93z1j","421.9999999986612","<span class=stimul>qui</span>","0","Correct"
"","html-button-response","14","17681","0.0-1.0-0.13","x2kop93z1j","757.6000000008207","<span class=stimul>vélo</span>","0","Correct"
"","html-button-response","15","18024","0.0-1.0-0.14","x2kop93z1j","339.19999999852735","<span class=stimul>par</span>","0","Correct"
"","html-button-response","16","18356","0.0-1.0-0.15","x2kop93z1j","327.900000000227","<span class=stimul>feu</span>","0","Correct"
"","html-button-response","17","19164","0.0-1.0-0.16","x2kop93z1j","804.4000000008964","<span class=stimul>ce</span>","0","Correct"
"","html-button-response","18","19523","0.0-1.0-0.17","x2kop93z1j","354.6999999998661","<span class=stimul>peur</span>","0","Correct"
"","html-button-response","19","19942","0.0-1.0-0.18","x2kop93z1j","414.7000000011758","<span class=stimul>ami</span>","0","Correct"
"","html-button-response","20","20340","0.0-1.0-0.19","x2kop93z1j","394.5000000021537","<span class=stimul>moto</span>","0","Correct"
"","html-button-response","21","20731","0.0-1.0-0.20","x2kop93z1j","387.29999999850406","<span class=stimul>peau</span>","0","Correct"
"","html-button-response","22","21113","0.0-1.0-0.21","x2kop93z1j","377.8999999994994","<span class=stimul>lune</span>","0","Correct"
"","html-button-response","23","21539","0.0-1.0-0.22","x2kop93z1j","422.3000000019965","<span class=stimul>gare</span>","0","Correct"
"","html-button-response","24","21923","0.0-1.0-0.23","x2kop93z1j","375.89999999909196","<span class=stimul>lire</span>","0","Correct"
"","html-button-response","25","22356","0.0-1.0-0.24","x2kop93z1j","428.80000000150176","<span class=stimul>bon</span>","0","Correct"
"","html-button-response","26","22749","0.0-1.0-0.25","x2kop93z1j","388.49999999729334","<span class=stimul>mardi</span>","0","Correct"
"","html-button-response","27","23147","0.0-1.0-0.26","x2kop93z1j","394.800000001851","<span class=stimul>col</span>","0","Correct"
"","html-button-response","28","23620","0.0-1.0-0.27","x2kop93z1j","469.30000000065775","<span class=stimul>avril</span>","0","Correct"
"","html-button-response","29","23994","0.0-1.0-0.28","x2kop93z1j","370.5000000009022","<span class=stimul>roi</span>","0","Correct"
"","html-button-response","30","24853","0.0-1.0-0.29","x2kop93z1j","854.6999999998661","<span class=stimul>faire</span>","0","Correct"
"","html-button-response","31","25420","0.0-1.0-0.30","x2kop93z1j","562.3999999988882","<span class=stimul>facile</span>","0","Correct"
"","html-button-response","32","25850","0.0-1.0-0.31","x2kop93z1j","426.69999999998254","<span class=stimul>cheval</span>","0","Correct"
"","html-button-response","33","26283","0.0-1.0-0.32","x2kop93z1j","429.19999999867287","<span class=stimul>vrai</span>","0","Correct"
"","html-button-response","34","26724","0.0-1.0-0.33","x2kop93z1j","436.4999999997963","<span class=stimul>ligne</span>","0","Correct"
"","html-button-response","35","27106","0.0-1.0-0.34","x2kop93z1j","377.79999999838765","<span class=stimul>porte</span>","0","Correct"
"","html-button-response","36","27933","0.0-1.0-0.35","x2kop93z1j","823.3000000000175","<span class=stimul>autre</span>","0","Correct"
"","html-button-response","37","28307","0.0-1.0-0.36","x2kop93z1j","370.39999999979045","<span class=stimul>loup</span>","0","Correct"
"","html-button-response","38","28631","0.0-1.0-0.37","x2kop93z1j","320.6000000027416","<span class=stimul>soir</span>","0","Correct"
"","html-button-response","39","28967","0.0-1.0-0.38","x2kop93z1j","332.09999999962747","<span class=stimul>page</span>","0","Correct"
"","html-button-response","40","29375","0.0-1.0-0.39","x2kop93z1j","404.0999999997439","<span class=stimul>raisin</span>","0","Correct"
"","html-button-response","41","29751","0.0-1.0-0.40","x2kop93z1j","371.80000000080327","<span class=stimul>car</span>","0","Correct"
"","html-button-response","42","30209","0.0-1.0-0.41","x2kop93z1j","453.90000000043074","<span class=stimul>sucre</span>","0","Correct"
"","html-button-response","43","31310","0.0-1.0-0.42","x2kop93z1j","1096.9000000004598","<span class=stimul>chat</span>","0","Correct"
"","html-button-response","44","31690","0.0-1.0-0.43","x2kop93z1j","375.59999999939464","<span class=stimul>matin</span>","0","Correct"
"","html-button-response","45","32125","0.0-1.0-0.44","x2kop93z1j","431.49999999877764","<span class=stimul>trésor</span>","0","Correct"
"","html-button-response","46","32549","0.0-1.0-0.45","x2kop93z1j","420.6000000012864","<span class=stimul>soixante</span>","0","Correct"
"","html-button-response","47","32907","0.0-1.0-0.46","x2kop93z1j","353.3999999999651","<span class=stimul>lundi</span>","0","Correct"
"","html-button-response","48","33406","0.0-1.0-0.47","x2kop93z1j","496.10000000029686","<span class=stimul>rose</span>","0","Correct"
"","html-button-response","49","33951","0.0-1.0-0.48","x2kop93z1j","540.2000000030966","<span class=stimul>visage</span>","0","Correct"
"","html-button-response","50","34638","0.0-1.0-0.49","x2kop93z1j","683.7999999988824","<span class=stimul>six</span>","0","Correct"
"","html-button-response","51","34806","0.0-1.0-0.50","x2kop93z1j","163.79999999844586","<span class=stimul>ciseau</span>","0","Correct"
"","html-button-response","52","35033","0.0-1.0-0.51","x2kop93z1j","222.7999999995518","<span class=stimul>août</span>","0","Correct"
"","html-button-response","53","35297","0.0-1.0-0.52","x2kop93z1j","260.3999999992084","<span class=stimul>pays</span>","0","Correct"
"","html-button-response","54","35462","0.0-1.0-0.53","x2kop93z1j","161.29999999975553","<span class=stimul>balai</span>","0","Correct"
"","html-button-response","55","35758","0.0-1.0-0.54","x2kop93z1j","291.70000000158325","<span class=stimul>fille</span>","0","Correct"
"","html-button-response","56","35973","0.0-1.0-0.55","x2kop93z1j","211.20000000155414","<span class=stimul>sept</span>","0","Correct"
"","html-button-response","57","36203","0.0-1.0-0.56","x2kop93z1j","226.29999999844586","<span class=stimul>lourd</span>","0","Correct"
"","html-button-response","58","36377","0.0-1.0-0.57","x2kop93z1j","170.2000000004773","<span class=stimul>femme</span>","0","Correct"
"","html-button-response","59","36560","0.0-1.0-0.58","x2kop93z1j","178.79999999786378","<span class=stimul>garage</span>","0","Correct"
"","html-button-response","60","36754","0.0-1.0-0.59","x2kop93z1j","191.10000000000582","<span class=stimul>hibou</span>","0","Correct"
"true","fullscreen","61","37757","0.0-2.0","x2kop93z1j","","","",""
"true","fullscreen","0","4322","0.0-0.0","vwp5gnqul4","","","",""
"","html-button-response","1","5390","0.0-1.0-0.0","vwp5gnqul4","1046.8000000000757","<span class=stimul>o</span>","0","Correct"
"","html-button-response","2","5777","0.0-1.0-0.1","vwp5gnqul4","381.3000000009197","<span class=stimul>i</span>","0","Correct"
"","html-button-response","3","6173","0.0-1.0-0.2","vwp5gnqul4","392.3999999969965","<span class=stimul>bi</span>","0","Correct"
"","html-button-response","4","6582","0.0-1.0-0.3","vwp5gnqul4","404.1999999972177","<span class=stimul>ul</span>","0","Correct"
"","html-button-response","5","7002","0.0-1.0-0.4","vwp5gnqul4","415.69999999774154","<span class=stimul>til</span>","0","Correct"
"","html-button-response","6","7445","0.0-1.0-0.5","vwp5gnqul4","439.3000000018219","<span class=stimul>ja</span>","0","Correct"
"","html-button-response","7","7891","0.0-1.0-0.6","vwp5gnqul4","441.69999999940046","<span class=stimul>ol</span>","0","Correct"
"","html-button-response","8","8284","0.0-1.0-0.7","vwp5gnqul4","388.80000000062864","<span class=stimul>ata</span>","0","Correct"
"","html-button-response","9","8729","0.0-1.0-0.8","vwp5gnqul4","440.8000000003085","<span class=stimul>dik</span>","0","Correct"
"","html-button-response","10","9250","0.0-1.0-0.9","vwp5gnqul4","517.1999999984109","<span class=stimul>nar</span>","0","Correct"
"","html-button-response","11","9699","0.0-1.0-0.10","vwp5gnqul4","445.1000000008207","<span class=stimul>vaf</span>","0","Correct"
"","html-button-response","12","10225","0.0-1.0-0.11","vwp5gnqul4","521.8999999997322","<span class=stimul>zou</span>","0","Correct"
"","html-button-response","13","11049","0.0-1.0-0.12","vwp5gnqul4","820.1000000008207","<span class=stimul>dul</span>","0","Correct"
"","html-button-response","14","11642","0.0-1.0-0.13","vwp5gnqul4","589.7000000004482","<span class=stimul>lévo</span>","0","Correct"
"","html-button-response","15","12103","0.0-1.0-0.14","vwp5gnqul4","456.50000000023283","<span class=stimul>tur</span>","0","Correct"
"","html-button-response","16","12678","0.0-1.0-0.15","vwp5gnqul4","571.0999999973865","<span class=stimul>veur</span>","0","Correct"
"","html-button-response","17","13130","0.0-1.0-0.16","vwp5gnqul4","448.30000000001746","<span class=stimul>col</span>","0","Correct"
"","html-button-response","18","13576","0.0-1.0-0.17","vwp5gnqul4","442.39999999990687","<span class=stimul>noil</span>","0","Correct"
"","html-button-response","19","14159","0.0-1.0-0.18","vwp5gnqul4","579.2000000001281","<span class=stimul>opa</span>","0","Correct"
"","html-button-response","20","14641","0.0-1.0-0.19","vwp5gnqul4","477.69999999945867","<span class=stimul>jal</span>","0","Correct"
"","html-button-response","21","15395","0.0-1.0-0.20","vwp5gnqul4","750.2999999996973","<span class=stimul>neau</span>","0","Correct"
"","html-button-response","22","15945","0.0-1.0-0.21","vwp5gnqul4","546.200000000681","<span class=stimul>timé</span>","0","Correct"
"","html-button-response","23","16479","0.0-1.0-0.22","vwp5gnqul4","530.5000000007567","<span class=stimul>cal</span>","0","Correct"
"","html-button-response","24","17121","0.0-1.0-0.23","vwp5gnqul4","637.8000000004249","<span class=stimul>tibe</span>","0","Correct"
"","html-button-response","25","18221","0.0-1.0-0.24","vwp5gnqul4","1096.4999999996508","<span class=stimul>lupe</span>","0","Correct"
"","html-button-response","26","19060","0.0-1.0-0.25","vwp5gnqul4","834.6999999994296","<span class=stimul>pirde</span>","0","Correct"
"","html-button-response","27","20201","0.0-1.0-0.26","vwp5gnqul4","1137.0000000024447","<span class=stimul>gor</span>","0","Correct"
"","html-button-response","28","20924","0.0-1.0-0.27","vwp5gnqul4","719.1000000020722","<span class=stimul>ablir</span>","0","Correct"
"","html-button-response","29","21634","0.0-1.0-0.28","vwp5gnqul4","706.7999999999302","<span class=stimul>sar</span>","0","Correct"
"","html-button-response","30","23240","0.0-1.0-0.29","vwp5gnqul4","1601.9999999989523","<span class=stimul>vaipe</span>","0","Correct"
"","html-button-response","31","24307","0.0-1.0-0.30","vwp5gnqul4","1063.399999999092","<span class=stimul>cifale</span>","0","Correct"
"","html-button-response","32","24859","0.0-1.0-0.31","vwp5gnqul4","547.3000000019965","<span class=stimul>sapir</span>","0","Correct"
"","html-button-response","33","25525","0.0-1.0-0.32","vwp5gnqul4","662.1999999988475","<span class=stimul>vro</span>","0","Correct"
"","html-button-response","34","26023","0.0-1.0-0.33","vwp5gnqul4","494.700000002922","<span class=stimul>rigne</span>","0","Correct"
"","html-button-response","35","26549","0.0-1.0-0.34","vwp5gnqul4","521.6000000000349","<span class=stimul>rosan</span>","0","Correct"
"","html-button-response","36","27329","0.0-1.0-0.35","vwp5gnqul4","776.5999999974156","<span class=stimul>aubre</span>","0","Correct"
"","html-button-response","37","28700","0.0-1.0-0.36","vwp5gnqul4","1366.9000000008964","<span class=stimul>talpe</span>","0","Correct"
"","html-button-response","38","29365","0.0-1.0-0.37","vwp5gnqul4","661.4000000008673","<span class=stimul>gur</span>","0","Correct"
"","html-button-response","39","30037","0.0-1.0-0.38","vwp5gnqul4","667.7999999992608","<span class=stimul>louré</span>","0","Correct"
"","html-button-response","40","30776","0.0-1.0-0.39","vwp5gnqul4","734.599999999773","<span class=stimul>ragife</span>","0","Correct"
"","html-button-response","41","32329","0.0-1.0-0.40","vwp5gnqul4","1549.2000000012922","<span class=stimul>noge</span>","0","Correct"
"","html-button-response","42","32984","0.0-1.0-0.41","vwp5gnqul4","651.1000000027707","<span class=stimul>tope</span>","0","Correct"
"","html-button-response","43","33674","0.0-1.0-0.42","vwp5gnqul4","686.3999999986845","<span class=stimul>uché</span>","0","Correct"
"","html-button-response","44","35404","0.0-1.0-0.43","vwp5gnqul4","1725.9000000012747","<span class=stimul>truson</span>","1","Incorrect"
"","html-button-response","45","36264","0.0-1.0-0.44","vwp5gnqul4","856.2000000019907","<span class=stimul>ranli</span>","0","Correct"
"","html-button-response","46","36872","0.0-1.0-0.45","vwp5gnqul4","603.9999999993597","<span class=stimul>tosir</span>","0","Correct"
"","html-button-response","47","38021","0.0-1.0-0.46","vwp5gnqul4","1144.6000000032654","<span class=stimul>poitade</span>","0","Correct"
"","html-button-response","48","38897","0.0-1.0-0.47","vwp5gnqul4","872.1000000005006","<span class=stimul>ousir</span>","0","Correct"
"","html-button-response","49","40012","0.0-1.0-0.48","vwp5gnqul4","1111.0999999982596","<span class=stimul>bapre</span>","0","Correct"
"","html-button-response","50","41876","0.0-1.0-0.49","vwp5gnqul4","1860.000000000582","<span class=stimul>gigne</span>","1","Incorrect"
"","html-button-response","51","42498","0.0-1.0-0.50","vwp5gnqul4","618.2999999982712","<span class=stimul>gésin</span>","0","Correct"
"","html-button-response","52","44282","0.0-1.0-0.51","vwp5gnqul4","1780.6000000018685","<span class=stimul>kraulir</span>","0","Correct"
"","html-button-response","53","45061","0.0-1.0-0.52","vwp5gnqul4","775.099999998929","<span class=stimul>cibe</span>","0","Correct"
"","html-button-response","54","46198","0.0-1.0-0.53","vwp5gnqul4","1132.9999999979918","<span class=stimul>maipe</span>","0","Correct"
"","html-button-response","55","47223","0.0-1.0-0.54","vwp5gnqul4","1020.8999999995285","<span class=stimul>ligase</span>","0","Correct"
"","html-button-response","56","47911","0.0-1.0-0.55","vwp5gnqul4","684.0999999985797","<span class=stimul>gofi</span>","0","Correct"
"","html-button-response","57","48466","0.0-1.0-0.56","vwp5gnqul4","550.4999999975553","<span class=stimul>cipre</span>","0","Correct"
"","html-button-response","58","48908","0.0-1.0-0.57","vwp5gnqul4","438.79999999990105","<span class=stimul>tasin</span>","0","Correct"
"","html-button-response","59","49820","0.0-1.0-0.58","vwp5gnqul4","907.2000000014668","<span class=stimul>cipé</span>","0","Correct"
"","html-button-response","60","50655","0.0-1.0-0.59","vwp5gnqul4","830.9000000008382","<span class=stimul>punse</span>","0","Correct"
"true","fullscreen","61","51658","0.0-2.0","vwp5gnqul4","","","",""
"true","fullscreen","0","51134","0.0-0.0","xrarolq85m","","","",""
"","html-button-response","1","52205","0.0-1.0-0.0","xrarolq85m","1044.5999999999403","<span class=stimul>à</span>","0","Correct"
"","html-button-response","2","55230","0.0-1.0-0.1","xrarolq85m","3019.600000000086","<span class=stimul>où</span>","0","Correct"
"","html-button-response","3","56030","0.0-1.0-0.2","xrarolq85m","796.1999999999971","<span class=stimul>la</span>","0","Correct"
"","html-button-response","4","56777","0.0-1.0-0.3","xrarolq85m","742.7999999999884","<span class=stimul>au</span>","0","Correct"
"","html-button-response","5","57318","0.0-1.0-0.4","xrarolq85m","536.4000000000742","<span class=stimul>tu</span>","0","Correct"
"","html-button-response","6","57879","0.0-1.0-0.5","xrarolq85m","556.799999999952","<span class=stimul>un</span>","0","Correct"
"","html-button-response","7","58584","0.0-1.0-0.6","xrarolq85m","700.7999999999593","<span class=stimul>il</span>","0","Correct"
"","html-button-response","8","60992","0.0-1.0-0.7","xrarolq85m","2403.5000000000073","<span class=stimul>été</span>","0","Correct"
"","html-button-response","9","62138","0.0-1.0-0.8","xrarolq85m","1142.400000000067","<span class=stimul>on</span>","0","Correct"
"","html-button-response","10","62423","0.0-1.0-0.9","xrarolq85m","281.20000000001164","<span class=stimul>mur</span>","0","Correct"
"","html-button-response","11","62601","0.0-1.0-0.10","xrarolq85m","174.20000000004075","<span class=stimul>ni</span>","0","Correct"
"","html-button-response","12","63239","0.0-1.0-0.11","xrarolq85m","634.4000000000233","<span class=stimul>sur</span>","0","Correct"
"","html-button-response","13","63728","0.0-1.0-0.12","xrarolq85m","484.90000000003783","<span class=stimul>qui</span>","0","Correct"
"","html-button-response","14","64398","0.0-1.0-0.13","xrarolq85m","666.5000000000437","<span class=stimul>vélo</span>","0","Correct"
"","html-button-response","15","64900","0.0-1.0-0.14","xrarolq85m","497.9000000000742","<span class=stimul>par</span>","0","Correct"
"","html-button-response","16","65459","0.0-1.0-0.15","xrarolq85m","555.9000000000669","<span class=stimul>feu</span>","0","Correct"
"","html-button-response","17","66108","0.0-1.0-0.16","xrarolq85m","644.6000000000859","<span class=stimul>ce</span>","0","Correct"
"","html-button-response","18","66649","0.0-1.0-0.17","xrarolq85m","537.2999999999593","<span class=stimul>peur</span>","0","Correct"
"","html-button-response","19","67175","0.0-1.0-0.18","xrarolq85m","522.4000000000597","<span class=stimul>ami</span>","0","Correct"
"","html-button-response","20","67694","0.0-1.0-0.19","xrarolq85m","514.7999999999229","<span class=stimul>moto</span>","0","Correct"
"","html-button-response","21","68520","0.0-1.0-0.20","xrarolq85m","821.7999999999374","<span class=stimul>peau</span>","0","Correct"
"","html-button-response","22","69061","0.0-1.0-0.21","xrarolq85m","537.6999999999753","<span class=stimul>lune</span>","0","Correct"
"","html-button-response","23","69549","0.0-1.0-0.22","xrarolq85m","484.29999999995925","<span class=stimul>gare</span>","0","Correct"
"","html-button-response","24","70107","0.0-1.0-0.23","xrarolq85m","549.8000000000029","<span class=stimul>lire</span>","0","Correct"
"","html-button-response","25","70643","0.0-1.0-0.24","xrarolq85m","532.0000000000364","<span class=stimul>bon</span>","0","Correct"
"","html-button-response","26","71348","0.0-1.0-0.25","xrarolq85m","701.5000000000073","<span class=stimul>mardi</span>","0","Correct"
"","html-button-response","27","72082","0.0-1.0-0.26","xrarolq85m","729.6999999999825","<span class=stimul>col</span>","0","Correct"
"","html-button-response","28","72707","0.0-1.0-0.27","xrarolq85m","621.5999999999403","<span class=stimul>avril</span>","0","Correct"
"","html-button-response","29","73364","0.0-1.0-0.28","xrarolq85m","652.7999999999593","<span class=stimul>roi</span>","0","Correct"
"","html-button-response","30","73984","0.0-1.0-0.29","xrarolq85m","615.9999999999854","<span class=stimul>faire</span>","0","Correct"
"","html-button-response","31","74689","0.0-1.0-0.30","xrarolq85m","701.599999999984","<span class=stimul>facile</span>","0","Correct"
"","html-button-response","32","75480","0.0-1.0-0.31","xrarolq85m","787.0000000000364","<span class=stimul>cheval</span>","0","Correct"
"","html-button-response","33","76168","0.0-1.0-0.32","xrarolq85m","683.6999999999316","<span class=stimul>vrai</span>","0","Correct"
"","html-button-response","34","77059","0.0-1.0-0.33","xrarolq85m","887.1999999998952","<span class=stimul>ligne</span>","0","Correct"
"","html-button-response","35","77769","0.0-1.0-0.34","xrarolq85m","706.5","<span class=stimul>porte</span>","0","Correct"
"","html-button-response","36","78505","0.0-1.0-0.35","xrarolq85m","732.2000000000262","<span class=stimul>autre</span>","0","Correct"
"","html-button-response","37","79096","0.0-1.0-0.36","xrarolq85m","587.4999999999854","<span class=stimul>loup</span>","0","Correct"
"","html-button-response","38","79792","0.0-1.0-0.37","xrarolq85m","691.8000000000611","<span class=stimul>soir</span>","0","Correct"
"","html-button-response","39","80545","0.0-1.0-0.38","xrarolq85m","749.0000000000291","<span class=stimul>page</span>","0","Correct"
"","html-button-response","40","81403","0.0-1.0-0.39","xrarolq85m","854.3999999999505","<span class=stimul>raisin</span>","0","Correct"
"","html-button-response","41","82186","0.0-1.0-0.40","xrarolq85m","779.2000000000553","<span class=stimul>car</span>","0","Correct"
"","html-button-response","42","82980","0.0-1.0-0.41","xrarolq85m","790.4000000000815","<span class=stimul>sucre</span>","0","Correct"
"","html-button-response","43","83552","0.0-1.0-0.42","xrarolq85m","568.3999999999942","<span class=stimul>chat</span>","0","Correct"
"","html-button-response","44","84321","0.0-1.0-0.43","xrarolq85m","765.1000000000786","<span class=stimul>matin</span>","0","Correct"
"","html-button-response","45","84870","0.0-1.0-0.44","xrarolq85m","545.1000000000495","<span class=stimul>trésor</span>","0","Correct"
"","html-button-response","46","85422","0.0-1.0-0.45","xrarolq85m","547.0999999999913","<span class=stimul>soixante</span>","0","Correct"
"","html-button-response","47","86054","0.0-1.0-0.46","xrarolq85m","628.2999999999738","<span class=stimul>lundi</span>","0","Correct"
"","html-button-response","48","86701","0.0-1.0-0.47","xrarolq85m","642.9000000000524","<span class=stimul>rose</span>","0","Correct"
"","html-button-response","49","87470","0.0-1.0-0.48","xrarolq85m","765.8999999999942","<span class=stimul>visage</span>","0","Correct"
"","html-button-response","50","88002","0.0-1.0-0.49","xrarolq85m","527.5000000000291","<span class=stimul>six</span>","0","Correct"
"","html-button-response","51","88570","0.0-1.0-0.50","xrarolq85m","564.0000000000873","<span class=stimul>ciseau</span>","0","Correct"
"","html-button-response","52","89426","0.0-1.0-0.51","xrarolq85m","852.5000000000873","<span class=stimul>août</span>","0","Correct"
"","html-button-response","53","90047","0.0-1.0-0.52","xrarolq85m","617.2000000000262","<span class=stimul>pays</span>","0","Correct"
"","html-button-response","54","90613","0.0-1.0-0.53","xrarolq85m","562.1999999999534","<span class=stimul>balai</span>","0","Correct"
"","html-button-response","55","91100","0.0-1.0-0.54","xrarolq85m","482.6999999999098","<span class=stimul>fille</span>","0","Correct"
"","html-button-response","56","91650","0.0-1.0-0.55","xrarolq85m","546.4000000000669","<span class=stimul>sept</span>","0","Correct"
"","html-button-response","57","92249","0.0-1.0-0.56","xrarolq85m","595.0000000000291","<span class=stimul>lourd</span>","0","Correct"
"","html-button-response","58","92822","0.0-1.0-0.57","xrarolq85m","568.8999999999796","<span class=stimul>femme</span>","0","Correct"
"","html-button-response","59","93364","0.0-1.0-0.58","xrarolq85m","538.3000000000466","<span class=stimul>garage</span>","0","Correct"
"","html-button-response","60","93897","0.0-1.0-0.59","xrarolq85m","528.9000000000233","<span class=stimul>hibou</span>","0","Correct"
"true","fullscreen","61","94900","0.0-2.0","xrarolq85m","","","",""
"true","fullscreen","0","7741","0.0-0.0","s60eulq2ku","","","",""
"","html-button-response","1","8782","0.0-1.0-0.0","s60eulq2ku","1013.5999999993146","<span class=stimul>à</span>","0","Correct"
"","html-button-response","2","9470","0.0-1.0-0.1","s60eulq2ku","683.3999999998923","<span class=stimul>où</span>","0","Correct"
"","html-button-response","3","10931","0.0-1.0-0.2","s60eulq2ku","1456.600000000435","<span class=stimul>la</span>","0","Correct"
"","html-button-response","4","11602","0.0-1.0-0.3","s60eulq2ku","666.9000000001688","<span class=stimul>au</span>","0","Correct"
"","html-button-response","5","12223","0.0-1.0-0.4","s60eulq2ku","617.4000000000888","<span class=stimul>tu</span>","0","Correct"
"","html-button-response","6","12781","0.0-1.0-0.5","s60eulq2ku","553.3999999997832","<span class=stimul>un</span>","0","Correct"
"","html-button-response","7","13305","0.0-1.0-0.6","s60eulq2ku","520.3000000001339","<span class=stimul>il</span>","0","Correct"
"","html-button-response","8","13858","0.0-1.0-0.7","s60eulq2ku","548.4999999998763","<span class=stimul>été</span>","0","Correct"
"","html-button-response","9","14399","0.0-1.0-0.8","s60eulq2ku","536.4000000008673","<span class=stimul>on</span>","0","Correct"
"","html-button-response","10","14979","0.0-1.0-0.9","s60eulq2ku","576.600000000326","<span class=stimul>mur</span>","0","Correct"
"","html-button-response","11","15871","0.0-1.0-0.10","s60eulq2ku","887.8999999997177","<span class=stimul>ni</span>","0","Correct"
"","html-button-response","12","16326","0.0-1.0-0.11","s60eulq2ku","450.89999999981956","<span class=stimul>sur</span>","0","Correct"
"","html-button-response","13","16865","0.0-1.0-0.12","s60eulq2ku","534.9999999998545","<span class=stimul>qui</span>","0","Correct"
"","html-button-response","14","17387","0.0-1.0-0.13","s60eulq2ku","518.7000000005355","<span class=stimul>vélo</span>","0","Correct"
"","html-button-response","15","18180","0.0-1.0-0.14","s60eulq2ku","788.9999999997599","<span class=stimul>par</span>","0","Correct"
"","html-button-response","16","18865","0.0-1.0-0.15","s60eulq2ku","680.699999999888","<span class=stimul>feu</span>","0","Correct"
"","html-button-response","17","19404","0.0-1.0-0.16","s60eulq2ku","535.6000000001586","<span class=stimul>ce</span>","0","Correct"
"","html-button-response","18","19952","0.0-1.0-0.17","s60eulq2ku","544.1999999993641","<span class=stimul>peur</span>","0","Correct"
"","html-button-response","19","20465","0.0-1.0-0.18","s60eulq2ku","509.1000000002168","<span class=stimul>ami</span>","0","Correct"
"","html-button-response","20","20947","0.0-1.0-0.19","s60eulq2ku","477.79999999966094","<span class=stimul>moto</span>","0","Correct"
"","html-button-response","21","21918","0.0-1.0-0.20","s60eulq2ku","967.200000000048","<span class=stimul>peau</span>","0","Correct"
"","html-button-response","22","22506","0.0-1.0-0.21","s60eulq2ku","584.1000000000349","<span class=stimul>lune</span>","0","Correct"
"","html-button-response","23","23036","0.0-1.0-0.22","s60eulq2ku","525.7999999994354","<span class=stimul>gare</span>","0","Correct"
"","html-button-response","24","23553","0.0-1.0-0.23","s60eulq2ku","513.2999999996173","<span class=stimul>lire</span>","0","Correct"
"","html-button-response","25","24131","0.0-1.0-0.24","s60eulq2ku","574.7999999994136","<span class=stimul>bon</span>","0","Correct"
"","html-button-response","26","25119","0.0-1.0-0.25","s60eulq2ku","983.499999999367","<span class=stimul>mardi</span>","0","Correct"
"","html-button-response","27","25761","0.0-1.0-0.26","s60eulq2ku","638.1000000001222","<span class=stimul>col</span>","0","Correct"
"","html-button-response","28","26267","0.0-1.0-0.27","s60eulq2ku","502.5999999998021","<span class=stimul>avril</span>","0","Correct"
"","html-button-response","29","26855","0.0-1.0-0.28","s60eulq2ku","583.3999999995285","<span class=stimul>roi</span>","0","Correct"
"","html-button-response","30","27433","0.0-1.0-0.29","s60eulq2ku","574.800000000323","<span class=stimul>faire</span>","0","Correct"
"","html-button-response","31","28130","0.0-1.0-0.30","s60eulq2ku","692.5999999994019","<span class=stimul>facile</span>","0","Correct"
"","html-button-response","32","29036","0.0-1.0-0.31","s60eulq2ku","901.9000000007509","<span class=stimul>cheval</span>","0","Correct"
"","html-button-response","33","29688","0.0-1.0-0.32","s60eulq2ku","648.9000000001397","<span class=stimul>vrai</span>","0","Correct"
"","html-button-response","34","30280","0.0-1.0-0.33","s60eulq2ku","587.9000000004453","<span class=stimul>ligne</span>","0","Correct"
"","html-button-response","35","30993","0.0-1.0-0.34","s60eulq2ku","708.8000000003376","<span class=stimul>porte</span>","0","Correct"
"","html-button-response","36","31661","0.0-1.0-0.35","s60eulq2ku","664.400000000569","<span class=stimul>autre</span>","0","Correct"
"","html-button-response","37","32314","0.0-1.0-0.36","s60eulq2ku","648.5999999995329","<span class=stimul>loup</span>","0","Correct"
"","html-button-response","38","32950","0.0-1.0-0.37","s60eulq2ku","632.3000000002139","<span class=stimul>soir</span>","0","Correct"
"","html-button-response","39","33824","0.0-1.0-0.38","s60eulq2ku","870.4999999999927","<span class=stimul>page</span>","0","Correct"
"","html-button-response","40","34427","0.0-1.0-0.39","s60eulq2ku","598.6000000002605","<span class=stimul>raisin</span>","0","Correct"
"","html-button-response","41","35113","0.0-1.0-0.40","s60eulq2ku","682.2999999994863","<span class=stimul>car</span>","0","Correct"
"","html-button-response","42","35636","0.0-1.0-0.41","s60eulq2ku","519.4999999994252","<span class=stimul>sucre</span>","0","Correct"
"","html-button-response","43","36148","0.0-1.0-0.42","s60eulq2ku","508.1999999993059","<span class=stimul>chat</span>","0","Correct"
"","html-button-response","44","36744","0.0-1.0-0.43","s60eulq2ku","591.5999999997439","<span class=stimul>matin</span>","0","Correct"
"","html-button-response","45","37633","0.0-1.0-0.44","s60eulq2ku","884.700000000521","<span class=stimul>trésor</span>","0","Correct"
"","html-button-response","46","38244","0.0-1.0-0.45","s60eulq2ku","607.8999999999724","<span class=stimul>soixante</span>","0","Correct"
"","html-button-response","47","38877","0.0-1.0-0.46","s60eulq2ku","628.8000000004104","<span class=stimul>lundi</span>","0","Correct"
"","html-button-response","48","39515","0.0-1.0-0.47","s60eulq2ku","633.8999999998123","<span class=stimul>rose</span>","0","Correct"
"","html-button-response","49","40159","0.0-1.0-0.48","s60eulq2ku","639.8999999992157","<span class=stimul>visage</span>","0","Correct"
"","html-button-response","50","40853","0.0-1.0-0.49","s60eulq2ku","690.3999999994994","<span class=stimul>six</span>","0","Correct"
"","html-button-response","51","41490","0.0-1.0-0.50","s60eulq2ku","632.900000000518","<span class=stimul>ciseau</span>","0","Correct"
"","html-button-response","52","42103","0.0-1.0-0.51","s60eulq2ku","608.7999999999738","<span class=stimul>août</span>","0","Correct"
"","html-button-response","53","42739","0.0-1.0-0.52","s60eulq2ku","631.800000000112","<span class=stimul>pays</span>","0","Correct"
"","html-button-response","54","43319","0.0-1.0-0.53","s60eulq2ku","575.7999999996173","<span class=stimul>balai</span>","0","Correct"
"","html-button-response","55","44052","0.0-1.0-0.54","s60eulq2ku","729.6000000005733","<span class=stimul>fille</span>","0","Correct"
"","html-button-response","56","44679","0.0-1.0-0.55","s60eulq2ku","622.2999999999956","<span class=stimul>sept</span>","0","Correct"
"","html-button-response","57","45283","0.0-1.0-0.56","s60eulq2ku","600.800000000163","<span class=stimul>lourd</span>","0","Correct"
"","html-button-response","58","45838","0.0-1.0-0.57","s60eulq2ku","550.5999999995765","<span class=stimul>femme</span>","0","Correct"
"","html-button-response","59","46401","0.0-1.0-0.58","s60eulq2ku","558.8999999999942","<span class=stimul>garage</span>","0","Correct"
"","html-button-response","60","46883","0.0-1.0-0.59","s60eulq2ku","478.3999999999651","<span class=stimul>hibou</span>","0","Correct"
"true","fullscreen","61","47887","0.0-2.0","s60eulq2ku","","","",""
"true","fullscreen","0","7981","0.0-0.0","6h6myudlr4","","","",""
"","html-button-response","1","13941","0.0-1.0-0.0","6h6myudlr4","5934.699999999793","<span class=stimul>à</span>","0","Correct"
"","html-button-response","2","14450","0.0-1.0-0.1","6h6myudlr4","503.9999999999054","<span class=stimul>où</span>","0","Correct"
"","html-button-response","3","15338","0.0-1.0-0.2","6h6myudlr4","883.600000000115","<span class=stimul>la</span>","0","Correct"
"","html-button-response","4","15797","0.0-1.0-0.3","6h6myudlr4","455.39999999982683","<span class=stimul>au</span>","0","Correct"
"","html-button-response","5","16213","0.0-1.0-0.4","6h6myudlr4","411.7999999998574","<span class=stimul>tu</span>","0","Correct"
"","html-button-response","6","16673","0.0-1.0-0.5","6h6myudlr4","455.7999999997264","<span class=stimul>un</span>","0","Correct"
"","html-button-response","7","17122","0.0-1.0-0.6","6h6myudlr4","445.3000000003158","<span class=stimul>il</span>","0","Correct"
"","html-button-response","8","17563","0.0-1.0-0.7","6h6myudlr4","436.4000000005035","<span class=stimul>été</span>","0","Correct"
"","html-button-response","9","18038","0.0-1.0-0.8","6h6myudlr4","471.3999999994485","<span class=stimul>on</span>","0","Correct"
"","html-button-response","10","18545","0.0-1.0-0.9","6h6myudlr4","502.70000000000437","<span class=stimul>mur</span>","0","Correct"
"","html-button-response","11","19096","0.0-1.0-0.10","6h6myudlr4","547.3000000001775","<span class=stimul>ni</span>","0","Correct"
"","html-button-response","12","19586","0.0-1.0-0.11","6h6myudlr4","486.1000000000786","<span class=stimul>sur</span>","0","Correct"
"","html-button-response","13","20118","0.0-1.0-0.12","6h6myudlr4","527.8999999991356","<span class=stimul>qui</span>","0","Correct"
"","html-button-response","14","20684","0.0-1.0-0.13","6h6myudlr4","561.399999999594","<span class=stimul>vélo</span>","0","Correct"
"","html-button-response","15","21234","0.0-1.0-0.14","6h6myudlr4","546.200000000681","<span class=stimul>par</span>","0","Correct"
"","html-button-response","16","21792","0.0-1.0-0.15","6h6myudlr4","554.1999999995824","<span class=stimul>feu</span>","0","Correct"
"","html-button-response","17","22397","0.0-1.0-0.16","6h6myudlr4","601.2000000000626","<span class=stimul>ce</span>","0","Correct"
"","html-button-response","18","23225","0.0-1.0-0.17","6h6myudlr4","824.399999999514","<span class=stimul>peur</span>","0","Correct"
"","html-button-response","19","23797","0.0-1.0-0.18","6h6myudlr4","568.2999999999083","<span class=stimul>ami</span>","0","Correct"
"","html-button-response","20","24444","0.0-1.0-0.19","6h6myudlr4","642.7999999996246","<span class=stimul>moto</span>","0","Correct"
"","html-button-response","21","26559","0.0-1.0-0.20","6h6myudlr4","2110.6999999992695","<span class=stimul>peau</span>","1","Incorrect"
"","html-button-response","22","27754","0.0-1.0-0.21","6h6myudlr4","1190.7000000001062","<span class=stimul>lune</span>","0","Correct"
"","html-button-response","23","28145","0.0-1.0-0.22","6h6myudlr4","387.6000000000204","<span class=stimul>gare</span>","0","Correct"
"","html-button-response","24","28644","0.0-1.0-0.23","6h6myudlr4","492.90000000019063","<span class=stimul>lire</span>","0","Correct"
"","html-button-response","25","29119","0.0-1.0-0.24","6h6myudlr4","471.0000000004584","<span class=stimul>bon</span>","0","Correct"
"","html-button-response","26","29603","0.0-1.0-0.25","6h6myudlr4","479.89999999936117","<span class=stimul>mardi</span>","0","Correct"
"","html-button-response","27","30094","0.0-1.0-0.26","6h6myudlr4","486.7000000003827","<span class=stimul>col</span>","0","Correct"
"","html-button-response","28","30592","0.0-1.0-0.27","6h6myudlr4","493.89999999948486","<span class=stimul>avril</span>","0","Correct"
"","html-button-response","29","31115","0.0-1.0-0.28","6h6myudlr4","519.5999999996275","<span class=stimul>roi</span>","0","Correct"
"","html-button-response","30","31641","0.0-1.0-0.29","6h6myudlr4","522.3999999998341","<span class=stimul>faire</span>","0","Correct"
"","html-button-response","31","32148","0.0-1.0-0.30","6h6myudlr4","503.20000000010623","<span class=stimul>facile</span>","0","Correct"
"","html-button-response","32","32727","0.0-1.0-0.31","6h6myudlr4","574.9999999998181","<span class=stimul>cheval</span>","0","Correct"
"","html-button-response","33","33266","0.0-1.0-0.32","6h6myudlr4","534.8000000003594","<span class=stimul>vrai</span>","0","Correct"
"","html-button-response","34","33845","0.0-1.0-0.33","6h6myudlr4","575.7000000003245","<span class=stimul>ligne</span>","0","Correct"
"","html-button-response","35","34402","0.0-1.0-0.34","6h6myudlr4","552.7000000001863","<span class=stimul>porte</span>","0","Correct"
"","html-button-response","36","34936","0.0-1.0-0.35","6h6myudlr4","529.8000000002503","<span class=stimul>autre</span>","0","Correct"
"","html-button-response","37","35452","0.0-1.0-0.36","6h6myudlr4","512.4999999998181","<span class=stimul>loup</span>","0","Correct"
"","html-button-response","38","35975","0.0-1.0-0.37","6h6myudlr4","518.4999999992215","<span class=stimul>soir</span>","0","Correct"
"","html-button-response","39","36483","0.0-1.0-0.38","6h6myudlr4","504.89999999990687","<span class=stimul>page</span>","0","Correct"
"","html-button-response","40","37065","0.0-1.0-0.39","6h6myudlr4","577.8000000000247","<span class=stimul>raisin</span>","0","Correct"
"","html-button-response","41","37784","0.0-1.0-0.40","6h6myudlr4","714.799999999741","<span class=stimul>car</span>","0","Correct"
"","html-button-response","42","38341","0.0-1.0-0.41","6h6myudlr4","553.6000000001877","<span class=stimul>sucre</span>","0","Correct"
"","html-button-response","43","38855","0.0-1.0-0.42","6h6myudlr4","509.69999999961146","<span class=stimul>chat</span>","0","Correct"
"","html-button-response","44","39430","0.0-1.0-0.43","6h6myudlr4","571.100000000115","<span class=stimul>matin</span>","0","Correct"
"","html-button-response","45","39969","0.0-1.0-0.44","6h6myudlr4","534.4999999997526","<span class=stimul>trésor</span>","0","Correct"
"","html-button-response","46","40550","0.0-1.0-0.45","6h6myudlr4","577.2999999999229","<span class=stimul>soixante</span>","0","Correct"
"","html-button-response","47","41189","0.0-1.0-0.46","6h6myudlr4","635.099999999511","<span class=stimul>lundi</span>","0","Correct"
"","html-button-response","48","41761","0.0-1.0-0.47","6h6myudlr4","567.9000000000087","<span class=stimul>rose</span>","0","Correct"
"","html-button-response","49","42499","0.0-1.0-0.48","6h6myudlr4","733.9999999994689","<span class=stimul>visage</span>","0","Correct"
"","html-button-response","50","43192","0.0-1.0-0.49","6h6myudlr4","689.3999999992957","<span class=stimul>six</span>","0","Correct"
"","html-button-response","51","44027","0.0-1.0-0.50","6h6myudlr4","830.3999999998268","<span class=stimul>ciseau</span>","0","Correct"
"","html-button-response","52","44688","0.0-1.0-0.51","6h6myudlr4","657.5000000002547","<span class=stimul>août</span>","0","Correct"
"","html-button-response","53","45285","0.0-1.0-0.52","6h6myudlr4","593.4000000006563","<span class=stimul>pays</span>","0","Correct"
"","html-button-response","54","45823","0.0-1.0-0.53","6h6myudlr4","533.8999999994485","<span class=stimul>balai</span>","0","Correct"
"","html-button-response","55","46577","0.0-1.0-0.54","6h6myudlr4","750","<span class=stimul>fille</span>","0","Correct"
"","html-button-response","56","47165","0.0-1.0-0.55","6h6myudlr4","583.8999999996304","<span class=stimul>sept</span>","0","Correct"
"","html-button-response","57","47749","0.0-1.0-0.56","6h6myudlr4","579.6000000000276","<span class=stimul>lourd</span>","0","Correct"
"","html-button-response","58","48223","0.0-1.0-0.57","6h6myudlr4","470.1999999997497","<span class=stimul>femme</span>","0","Correct"
"","html-button-response","59","48756","0.0-1.0-0.58","6h6myudlr4","529.4999999996435","<span class=stimul>garage</span>","0","Correct"
"","html-button-response","60","49434","0.0-1.0-0.59","6h6myudlr4","674.300000000585","<span class=stimul>hibou</span>","0","Correct"
"true","fullscreen","61","50437","0.0-2.0","6h6myudlr4","","","",""
"true","fullscreen","0","8668","0.0-0.0","p33m5cbflj","","","",""
"","html-button-response","1","10118","0.0-1.0-0.0","p33m5cbflj","1420.5000000001746","<span class=stimul>à</span>","0","Correct"
"","html-button-response","2","10527","0.0-1.0-0.1","p33m5cbflj","404.20000000085565","<span class=stimul>où</span>","0","Correct"
"","html-button-response","3","10887","0.0-1.0-0.2","p33m5cbflj","356.40000000057626","<span class=stimul>la</span>","0","Correct"
"","html-button-response","4","11231","0.0-1.0-0.3","p33m5cbflj","340.3999999991356","<span class=stimul>au</span>","0","Correct"
"","html-button-response","5","11519","0.0-1.0-0.4","p33m5cbflj","283.1000000005588","<span class=stimul>tu</span>","0","Correct"
"","html-button-response","6","11981","0.0-1.0-0.5","p33m5cbflj","459.00000000074215","<span class=stimul>un</span>","0","Correct"
"","html-button-response","7","12402","0.0-1.0-0.6","p33m5cbflj","415.8999999999651","<span class=stimul>il</span>","0","Correct"
"","html-button-response","8","12771","0.0-1.0-0.7","p33m5cbflj","365.4000000005908","<span class=stimul>été</span>","0","Correct"
"","html-button-response","9","13172","0.0-1.0-0.8","p33m5cbflj","397.19999999942956","<span class=stimul>on</span>","0","Correct"
"","html-button-response","10","13533","0.0-1.0-0.9","p33m5cbflj","356.49999999986903","<span class=stimul>mur</span>","0","Correct"
"","html-button-response","11","13921","0.0-1.0-0.10","p33m5cbflj","384.00000000001455","<span class=stimul>ni</span>","0","Correct"
"","html-button-response","12","14315","0.0-1.0-0.11","p33m5cbflj","390.19999999982247","<span class=stimul>sur</span>","0","Correct"
"","html-button-response","13","14630","0.0-1.0-0.12","p33m5cbflj","311.20000000009895","<span class=stimul>qui</span>","0","Correct"
"","html-button-response","14","15028","0.0-1.0-0.13","p33m5cbflj","393.50000000013097","<span class=stimul>vélo</span>","0","Correct"
"","html-button-response","15","15429","0.0-1.0-0.14","p33m5cbflj","396.80000000043947","<span class=stimul>par</span>","0","Correct"
"","html-button-response","16","15715","0.0-1.0-0.15","p33m5cbflj","282.7999999990425","<span class=stimul>feu</span>","0","Correct"
"","html-button-response","17","16117","0.0-1.0-0.16","p33m5cbflj","397.6999999995314","<span class=stimul>ce</span>","0","Correct"
"","html-button-response","18","16468","0.0-1.0-0.17","p33m5cbflj","346.6000000007625","<span class=stimul>peur</span>","0","Correct"
"","html-button-response","19","16960","0.0-1.0-0.18","p33m5cbflj","488.1999999997788","<span class=stimul>ami</span>","0","Correct"
"","html-button-response","20","17337","0.0-1.0-0.19","p33m5cbflj","373.6000000008062","<span class=stimul>moto</span>","0","Correct"
"","html-button-response","21","17695","0.0-1.0-0.20","p33m5cbflj","353.9999999993597","<span class=stimul>peau</span>","0","Correct"
"","html-button-response","22","18089","0.0-1.0-0.21","p33m5cbflj","389.7999999990134","<span class=stimul>lune</span>","0","Correct"
"","html-button-response","23","18481","0.0-1.0-0.22","p33m5cbflj","387.69999999931315","<span class=stimul>gare</span>","0","Correct"
"","html-button-response","24","18874","0.0-1.0-0.23","p33m5cbflj","389.19999999961874","<span class=stimul>lire</span>","0","Correct"
"","html-button-response","25","19399","0.0-1.0-0.24","p33m5cbflj","521.0999999999331","<span class=stimul>bon</span>","0","Correct"
"","html-button-response","26","19760","0.0-1.0-0.25","p33m5cbflj","357.0999999992637","<span class=stimul>mardi</span>","0","Correct"
"","html-button-response","27","20224","0.0-1.0-0.26","p33m5cbflj","460.6000000003405","<span class=stimul>col</span>","0","Correct"
"","html-button-response","28","20628","0.0-1.0-0.27","p33m5cbflj","399.3000000009488","<span class=stimul>avril</span>","0","Correct"
"","html-button-response","29","21208","0.0-1.0-0.28","p33m5cbflj","576.1999999995169","<span class=stimul>roi</span>","0","Correct"
"","html-button-response","30","21619","0.0-1.0-0.29","p33m5cbflj","407.6999999997497","<span class=stimul>faire</span>","0","Correct"
"","html-button-response","31","22046","0.0-1.0-0.30","p33m5cbflj","422.4999999987631","<span class=stimul>facile</span>","0","Correct"
"","html-button-response","32","22445","0.0-1.0-0.31","p33m5cbflj","395.699999999124","<span class=stimul>cheval</span>","0","Correct"
"","html-button-response","33","22887","0.0-1.0-0.32","p33m5cbflj","437.9000000008091","<span class=stimul>vrai</span>","0","Correct"
"","html-button-response","34","23313","0.0-1.0-0.33","p33m5cbflj","422.30000000017753","<span class=stimul>ligne</span>","0","Correct"
"","html-button-response","35","23730","0.0-1.0-0.34","p33m5cbflj","413.1000000015774","<span class=stimul>porte</span>","0","Correct"
"","html-button-response","36","24172","0.0-1.0-0.35","p33m5cbflj","438.2000000005064","<span class=stimul>autre</span>","0","Correct"
"","html-button-response","37","24838","0.0-1.0-0.36","p33m5cbflj","661.7999999998574","<span class=stimul>loup</span>","0","Correct"
"","html-button-response","38","25230","0.0-1.0-0.37","p33m5cbflj","388.200000001234","<span class=stimul>soir</span>","0","Correct"
"","html-button-response","39","25712","0.0-1.0-0.38","p33m5cbflj","478.50000000107684","<span class=stimul>page</span>","0","Correct"
"","html-button-response","40","26080","0.0-1.0-0.39","p33m5cbflj","363.9000000002852","<span class=stimul>raisin</span>","0","Correct"
"","html-button-response","41","26736","0.0-1.0-0.40","p33m5cbflj","651.8999999989319","<span class=stimul>car</span>","0","Correct"
"","html-button-response","42","27341","0.0-1.0-0.41","p33m5cbflj","600.799999998344","<span class=stimul>sucre</span>","0","Correct"
"","html-button-response","43","27733","0.0-1.0-0.42","p33m5cbflj","388.5999999984051","<span class=stimul>chat</span>","0","Correct"
"","html-button-response","44","28159","0.0-1.0-0.43","p33m5cbflj","422.099999999773","<span class=stimul>matin</span>","0","Correct"
"","html-button-response","45","28667","0.0-1.0-0.44","p33m5cbflj","503.50000000071304","<span class=stimul>trésor</span>","0","Correct"
"","html-button-response","46","29099","0.0-1.0-0.45","p33m5cbflj","428.70000000039","<span class=stimul>soixante</span>","0","Correct"
"","html-button-response","47","29592","0.0-1.0-0.46","p33m5cbflj","488.40000000018335","<span class=stimul>lundi</span>","0","Correct"
"","html-button-response","48","30410","0.0-1.0-0.47","p33m5cbflj","814.3999999992957","<span class=stimul>rose</span>","0","Correct"
"","html-button-response","49","30916","0.0-1.0-0.48","p33m5cbflj","502.1000000015192","<span class=stimul>visage</span>","0","Correct"
"","html-button-response","50","31441","0.0-1.0-0.49","p33m5cbflj","521.4999999989232","<span class=stimul>six</span>","0","Correct"
"","html-button-response","51","32022","0.0-1.0-0.50","p33m5cbflj","576.1999999995169","<span class=stimul>ciseau</span>","0","Correct"
"","html-button-response","52","33067","0.0-1.0-0.51","p33m5cbflj","1039.9999999990541","<span class=stimul>août</span>","0","Correct"
"","html-button-response","53","34193","0.0-1.0-0.52","p33m5cbflj","1122.3000000009051","<span class=stimul>pays</span>","0","Correct"
"","html-button-response","54","34600","0.0-1.0-0.53","p33m5cbflj","403.50000000034925","<span class=stimul>balai</span>","0","Correct"
"","html-button-response","55","35330","0.0-1.0-0.54","p33m5cbflj","725.5000000004657","<span class=stimul>fille</span>","0","Correct"
"","html-button-response","56","35813","0.0-1.0-0.55","p33m5cbflj","479.1000000004715","<span class=stimul>sept</span>","0","Correct"
"","html-button-response","57","37228","0.0-1.0-0.56","p33m5cbflj","1410.9000000007654","<span class=stimul>lourd</span>","0","Correct"
"","html-button-response","58","37745","0.0-1.0-0.57","p33m5cbflj","513.199999999415","<span class=stimul>femme</span>","0","Correct"
"","html-button-response","59","38187","0.0-1.0-0.58","p33m5cbflj","437.8999999989901","<span class=stimul>garage</span>","0","Correct"
"","html-button-response","60","38636","0.0-1.0-0.59","p33m5cbflj","444.7999999993044","<span class=stimul>hibou</span>","0","Correct"
"true","fullscreen","61","39640","0.0-2.0","p33m5cbflj","","","",""
"true","fullscreen","0","20026","0.0-0.0","a2q8ysy76c","","","",""
"","html-button-response","1","28983","0.0-1.0-0.0","a2q8ysy76c","8928.499999999985","<span class=stimul>à</span>","0","Correct"
"","html-button-response","2","29662","0.0-1.0-0.1","a2q8ysy76c","674.9999999992724","<span class=stimul>où</span>","0","Correct"
"","html-button-response","3","30175","0.0-1.0-0.2","a2q8ysy76c","509.00000000001455","<span class=stimul>la</span>","0","Correct"
"","html-button-response","4","30745","0.0-1.0-0.3","a2q8ysy76c","566.6999999994005","<span class=stimul>au</span>","0","Correct"
"","html-button-response","5","31327","0.0-1.0-0.4","a2q8ysy76c","577.4000000001251","<span class=stimul>tu</span>","0","Correct"
"","html-button-response","6","32730","0.0-1.0-0.5","a2q8ysy76c","1400.100000000748","<span class=stimul>un</span>","0","Correct"
"","html-button-response","7","33267","0.0-1.0-0.6","a2q8ysy76c","533.1999999998516","<span class=stimul>il</span>","0","Correct"
"","html-button-response","8","33747","0.0-1.0-0.7","a2q8ysy76c","475.800000000163","<span class=stimul>été</span>","0","Correct"
"","html-button-response","9","34360","0.0-1.0-0.8","a2q8ysy76c","609.3000000000757","<span class=stimul>on</span>","0","Correct"
"","html-button-response","10","35732","0.0-1.0-0.9","a2q8ysy76c","1368.6999999990803","<span class=stimul>mur</span>","0","Correct"
"","html-button-response","11","36189","0.0-1.0-0.10","a2q8ysy76c","454.20000000012806","<span class=stimul>ni</span>","0","Correct"
"","html-button-response","12","36670","0.0-1.0-0.11","a2q8ysy76c","477.00000000077125","<span class=stimul>sur</span>","0","Correct"
"","html-button-response","13","37191","0.0-1.0-0.12","a2q8ysy76c","518.0000000000291","<span class=stimul>qui</span>","0","Correct"
"","html-button-response","14","37699","0.0-1.0-0.13","a2q8ysy76c","503.89999999970314","<span class=stimul>vélo</span>","0","Correct"
"","html-button-response","15","39038","0.0-1.0-0.14","a2q8ysy76c","1335.1000000002387","<span class=stimul>par</span>","0","Correct"
"","html-button-response","16","39536","0.0-1.0-0.15","a2q8ysy76c","495.3000000004977","<span class=stimul>feu</span>","0","Correct"
"","html-button-response","17","40018","0.0-1.0-0.16","a2q8ysy76c","477.8999999998632","<span class=stimul>ce</span>","0","Correct"
"","html-button-response","18","40556","0.0-1.0-0.17","a2q8ysy76c","534.7000000001572","<span class=stimul>peur</span>","0","Correct"
"","html-button-response","19","41085","0.0-1.0-0.18","a2q8ysy76c","526.0999999991327","<span class=stimul>ami</span>","0","Correct"
"","html-button-response","20","42498","0.0-1.0-0.19","a2q8ysy76c","1409.2000000000553","<span class=stimul>moto</span>","0","Correct"
"","html-button-response","21","42979","0.0-1.0-0.20","a2q8ysy76c","478.2999999988533","<span class=stimul>peau</span>","0","Correct"
"","html-button-response","22","43558","0.0-1.0-0.21","a2q8ysy76c","575.3999999997177","<span class=stimul>lune</span>","0","Correct"
"","html-button-response","23","44120","0.0-1.0-0.22","a2q8ysy76c","558.100000000195","<span class=stimul>gare</span>","0","Correct"
"","html-button-response","24","44607","0.0-1.0-0.23","a2q8ysy76c","480.9000000004744","<span class=stimul>lire</span>","0","Correct"
"","html-button-response","25","46073","0.0-1.0-0.24","a2q8ysy76c","1462.7000000000407","<span class=stimul>bon</span>","0","Correct"
"","html-button-response","26","46610","0.0-1.0-0.25","a2q8ysy76c","533.6999999999534","<span class=stimul>mardi</span>","0","Correct"
"","html-button-response","27","47043","0.0-1.0-0.26","a2q8ysy76c","429.7000000005937","<span class=stimul>col</span>","0","Correct"
"","html-button-response","28","47631","0.0-1.0-0.27","a2q8ysy76c","583.9999999989232","<span class=stimul>avril</span>","0","Correct"
"","html-button-response","29","48063","0.0-1.0-0.28","a2q8ysy76c","428.2999999995809","<span class=stimul>roi</span>","0","Correct"
"","html-button-response","30","49624","0.0-1.0-0.29","a2q8ysy76c","1557.8999999997905","<span class=stimul>faire</span>","0","Correct"
"","html-button-response","31","50129","0.0-1.0-0.30","a2q8ysy76c","501.99999999858846","<span class=stimul>facile</span>","0","Correct"
"","html-button-response","32","50635","0.0-1.0-0.31","a2q8ysy76c","502.09999999970023","<span class=stimul>cheval</span>","0","Correct"
"","html-button-response","33","51156","0.0-1.0-0.32","a2q8ysy76c","517.7000000003318","<span class=stimul>vrai</span>","0","Correct"
"","html-button-response","34","52236","0.0-1.0-0.33","a2q8ysy76c","1076.3000000006286","<span class=stimul>ligne</span>","0","Correct"
"","html-button-response","35","52901","0.0-1.0-0.34","a2q8ysy76c","662.0000000002619","<span class=stimul>porte</span>","0","Correct"
"","html-button-response","36","53519","0.0-1.0-0.35","a2q8ysy76c","614.5000000014988","<span class=stimul>autre</span>","0","Correct"
"","html-button-response","37","54049","0.0-1.0-0.36","a2q8ysy76c","527.1000000011554","<span class=stimul>loup</span>","0","Correct"
"","html-button-response","38","54563","0.0-1.0-0.37","a2q8ysy76c","510.10000000133005","<span class=stimul>soir</span>","0","Correct"
"","html-button-response","39","55533","0.0-1.0-0.38","a2q8ysy76c","966.2000000007538","<span class=stimul>page</span>","0","Correct"
"","html-button-response","40","56119","0.0-1.0-0.39","a2q8ysy76c","582.8000000001339","<span class=stimul>raisin</span>","0","Correct"
"","html-button-response","41","56715","0.0-1.0-0.40","a2q8ysy76c","592.4000000013621","<span class=stimul>car</span>","0","Correct"
"","html-button-response","42","57202","0.0-1.0-0.41","a2q8ysy76c","484.30000000007567","<span class=stimul>sucre</span>","0","Correct"
"","html-button-response","43","57633","0.0-1.0-0.42","a2q8ysy76c","427.70000000018626","<span class=stimul>chat</span>","0","Correct"
"","html-button-response","44","58483","0.0-1.0-0.43","a2q8ysy76c","846.1000000006607","<span class=stimul>matin</span>","0","Correct"
"","html-button-response","45","59053","0.0-1.0-0.44","a2q8ysy76c","566.3999999997031","<span class=stimul>trésor</span>","0","Correct"
"","html-button-response","46","59563","0.0-1.0-0.45","a2q8ysy76c","506.10000000051514","<span class=stimul>soixante</span>","0","Correct"
"","html-button-response","47","60106","0.0-1.0-0.46","a2q8ysy76c","540.500000000975","<span class=stimul>lundi</span>","0","Correct"
"","html-button-response","48","60652","0.0-1.0-0.47","a2q8ysy76c","542.4000000002707","<span class=stimul>rose</span>","0","Correct"
"","html-button-response","49","61150","0.0-1.0-0.48","a2q8ysy76c","494.5000000006985","<span class=stimul>visage</span>","0","Correct"
"","html-button-response","50","61730","0.0-1.0-0.49","a2q8ysy76c","576.0000000009313","<span class=stimul>six</span>","0","Correct"
"","html-button-response","51","63291","0.0-1.0-0.50","a2q8ysy76c","1558.3000000005995","<span class=stimul>ciseau</span>","0","Correct"
"","html-button-response","52","63837","0.0-1.0-0.51","a2q8ysy76c","542.1999999998661","<span class=stimul>août</span>","0","Correct"
"","html-button-response","53","64346","0.0-1.0-0.52","a2q8ysy76c","505.70000000152504","<span class=stimul>pays</span>","0","Correct"
"","html-button-response","54","64925","0.0-1.0-0.53","a2q8ysy76c","575.1000000000204","<span class=stimul>balai</span>","0","Correct"
"","html-button-response","55","65830","0.0-1.0-0.54","a2q8ysy76c","901.2999999995372","<span class=stimul>fille</span>","0","Correct"
"","html-button-response","56","66457","0.0-1.0-0.55","a2q8ysy76c","624.100000000908","<span class=stimul>sept</span>","0","Correct"
"","html-button-response","57","66977","0.0-1.0-0.56","a2q8ysy76c","516.3999999986117","<span class=stimul>lourd</span>","0","Correct"
"","html-button-response","58","67475","0.0-1.0-0.57","a2q8ysy76c","493.8000000001921","<span class=stimul>femme</span>","0","Correct"
"","html-button-response","59","68046","0.0-1.0-0.58","a2q8ysy76c","567.6000000003114","<span class=stimul>garage</span>","0","Correct"
"","html-button-response","60","68991","0.0-1.0-0.59","a2q8ysy76c","941.3999999997031","<span class=stimul>hibou</span>","0","Correct"
"true","fullscreen","61","69994","0.0-2.0","a2q8ysy76c","","","",""
"true","fullscreen","0","15863","0.0-0.0","x6dlskve9m","","","",""
"","html-button-response","1","16984","0.0-1.0-0.0","x6dlskve9m","1072.4000000009255","<span class=stimul>à</span>","0","Correct"
"","html-button-response","2","17414","0.0-1.0-0.1","x6dlskve9m","423.69999999937136","<span class=stimul>où</span>","0","Correct"
"","html-button-response","3","17829","0.0-1.0-0.2","x6dlskve9m","411.0000000000582","<span class=stimul>la</span>","0","Correct"
"","html-button-response","4","18220","0.0-1.0-0.3","x6dlskve9m","387.0999999999185","<span class=stimul>au</span>","0","Correct"
"","html-button-response","5","18568","0.0-1.0-0.4","x6dlskve9m","343.0000000007567","<span class=stimul>tu</span>","0","Correct"
"","html-button-response","6","18933","0.0-1.0-0.5","x6dlskve9m","360.3000000002794","<span class=stimul>un</span>","0","Correct"
"","html-button-response","7","19346","0.0-1.0-0.6","x6dlskve9m","409.4999999979336","<span class=stimul>il</span>","0","Correct"
"","html-button-response","8","19720","0.0-1.0-0.7","x6dlskve9m","368.20000000079744","<span class=stimul>été</span>","0","Correct"
"","html-button-response","9","20169","0.0-1.0-0.8","x6dlskve9m","443.59999999869615","<span class=stimul>on</span>","0","Correct"
"","html-button-response","10","20800","0.0-1.0-0.9","x6dlskve9m","627.4999999986903","<span class=stimul>mur</span>","0","Correct"
"","html-button-response","11","21227","0.0-1.0-0.10","x6dlskve9m","422.8000000002794","<span class=stimul>ni</span>","0","Correct"
"","html-button-response","12","22285","0.0-1.0-0.11","x6dlskve9m","1053.5999999992782","<span class=stimul>sur</span>","0","Correct"
"","html-button-response","13","22805","0.0-1.0-0.12","x6dlskve9m","513.3000000023458","<span class=stimul>qui</span>","0","Correct"
"","html-button-response","14","23257","0.0-1.0-0.13","x6dlskve9m","447.8000000017346","<span class=stimul>vélo</span>","0","Correct"
"","html-button-response","15","23634","0.0-1.0-0.14","x6dlskve9m","372.60000000242144","<span class=stimul>par</span>","0","Correct"
"","html-button-response","16","24073","0.0-1.0-0.15","x6dlskve9m","435.49999999959255","<span class=stimul>feu</span>","0","Correct"
"","html-button-response","17","24567","0.0-1.0-0.16","x6dlskve9m","489.6000000007916","<span class=stimul>ce</span>","0","Correct"
"","html-button-response","18","24983","0.0-1.0-0.17","x6dlskve9m","412.29999999995925","<span class=stimul>peur</span>","0","Correct"
"","html-button-response","19","25363","0.0-1.0-0.18","x6dlskve9m","376.1000000013155","<span class=stimul>ami</span>","0","Correct"
"","html-button-response","20","25779","0.0-1.0-0.19","x6dlskve9m","412.1000000013737","<span class=stimul>moto</span>","0","Correct"
"","html-button-response","21","26280","0.0-1.0-0.20","x6dlskve9m","497.59999999878346","<span class=stimul>peau</span>","0","Correct"
"","html-button-response","22","26764","0.0-1.0-0.21","x6dlskve9m","480.40000000037253","<span class=stimul>lune</span>","0","Correct"
"","html-button-response","23","27286","0.0-1.0-0.22","x6dlskve9m","518.4000000008382","<span class=stimul>gare</span>","0","Correct"
"","html-button-response","24","27697","0.0-1.0-0.23","x6dlskve9m","400.0000000014552","<span class=stimul>lire</span>","0","Correct"
"","html-button-response","25","28139","0.0-1.0-0.24","x6dlskve9m","437.70000000222353","<span class=stimul>bon</span>","0","Correct"
"","html-button-response","26","28607","0.0-1.0-0.25","x6dlskve9m","464.19999999852735","<span class=stimul>mardi</span>","0","Correct"
"","html-button-response","27","29034","0.0-1.0-0.26","x6dlskve9m","422.7999999966414","<span class=stimul>col</span>","0","Correct"
"","html-button-response","28","29536","0.0-1.0-0.27","x6dlskve9m","498.40000000040163","<span class=stimul>avril</span>","0","Correct"
"","html-button-response","29","29987","0.0-1.0-0.28","x6dlskve9m","446.89999999900465","<span class=stimul>roi</span>","0","Correct"
"","html-button-response","30","30598","0.0-1.0-0.29","x6dlskve9m","607.399999997142","<span class=stimul>faire</span>","0","Correct"
"","html-button-response","31","31073","0.0-1.0-0.30","x6dlskve9m","471.3000000010652","<span class=stimul>facile</span>","0","Correct"
"","html-button-response","32","31572","0.0-1.0-0.31","x6dlskve9m","494.60000000181026","<span class=stimul>cheval</span>","0","Correct"
"","html-button-response","33","32014","0.0-1.0-0.32","x6dlskve9m","438.6000000013155","<span class=stimul>vrai</span>","0","Correct"
"","html-button-response","34","32490","0.0-1.0-0.33","x6dlskve9m","471.399999998539","<span class=stimul>ligne</span>","0","Correct"
"","html-button-response","35","33094","0.0-1.0-0.34","x6dlskve9m","600.5000000004657","<span class=stimul>porte</span>","0","Correct"
"","html-button-response","36","33479","0.0-1.0-0.35","x6dlskve9m","381.2999999972817","<span class=stimul>autre</span>","0","Correct"
"","html-button-response","37","34127","0.0-1.0-0.36","x6dlskve9m","643.7000000005355","<span class=stimul>loup</span>","0","Correct"
"","html-button-response","38","34625","0.0-1.0-0.37","x6dlskve9m","494.8000000003958","<span class=stimul>soir</span>","0","Correct"
"","html-button-response","39","35093","0.0-1.0-0.38","x6dlskve9m","463.9999999999418","<span class=stimul>page</span>","0","Correct"
"","html-button-response","40","35615","0.0-1.0-0.39","x6dlskve9m","517.8999999989173","<span class=stimul>raisin</span>","0","Correct"
"","html-button-response","41","36138","0.0-1.0-0.40","x6dlskve9m","519.2999999999302","<span class=stimul>car</span>","0","Correct"
"","html-button-response","42","36640","0.0-1.0-0.41","x6dlskve9m","498.40000000040163","<span class=stimul>sucre</span>","0","Correct"
"","html-button-response","43","37186","0.0-1.0-0.42","x6dlskve9m","541.3000000007742","<span class=stimul>chat</span>","0","Correct"
"","html-button-response","44","37661","0.0-1.0-0.43","x6dlskve9m","471.59999999712454","<span class=stimul>matin</span>","0","Correct"
"","html-button-response","45","38334","0.0-1.0-0.44","x6dlskve9m","668.6999999983527","<span class=stimul>trésor</span>","0","Correct"
"","html-button-response","46","38808","0.0-1.0-0.45","x6dlskve9m","469.9000000000524","<span class=stimul>soixante</span>","0","Correct"
"","html-button-response","47","39333","0.0-1.0-0.46","x6dlskve9m","521.100000001752","<span class=stimul>lundi</span>","0","Correct"
"","html-button-response","48","39849","0.0-1.0-0.47","x6dlskve9m","511.8000000002212","<span class=stimul>rose</span>","0","Correct"
"","html-button-response","49","40324","0.0-1.0-0.48","x6dlskve9m","471.10000000247965","<span class=stimul>visage</span>","0","Correct"
"","html-button-response","50","41053","0.0-1.0-0.49","x6dlskve9m","725.9000000012747","<span class=stimul>six</span>","0","Correct"
"","html-button-response","51","41536","0.0-1.0-0.50","x6dlskve9m","478.3000000024913","<span class=stimul>ciseau</span>","0","Correct"
"","html-button-response","52","42011","0.0-1.0-0.51","x6dlskve9m","471.90000000045984","<span class=stimul>août</span>","0","Correct"
"","html-button-response","53","42495","0.0-1.0-0.52","x6dlskve9m","479.90000000208966","<span class=stimul>pays</span>","0","Correct"
"","html-button-response","54","43083","0.0-1.0-0.53","x6dlskve9m","584.2000000011467","<span class=stimul>balai</span>","0","Correct"
"","html-button-response","55","43616","0.0-1.0-0.54","x6dlskve9m","528.5000000003492","<span class=stimul>fille</span>","0","Correct"
"","html-button-response","56","44218","0.0-1.0-0.55","x6dlskve9m","598.3000000014727","<span class=stimul>sept</span>","0","Correct"
"","html-button-response","57","44708","0.0-1.0-0.56","x6dlskve9m","486.0000000007858","<span class=stimul>lourd</span>","0","Correct"
"","html-button-response","58","45216","0.0-1.0-0.57","x6dlskve9m","503.80000000222935","<span class=stimul>femme</span>","0","Correct"
"","html-button-response","59","45789","0.0-1.0-0.58","x6dlskve9m","569.1999999980908","<span class=stimul>garage</span>","0","Correct"
"","html-button-response","60","46147","0.0-1.0-0.59","x6dlskve9m","354.300000002695","<span class=stimul>hibou</span>","0","Correct"
"true","fullscreen","61","47152","0.0-2.0","x6dlskve9m","","","",""
"true","fullscreen","0","54960","0.0-0.0","y94qvtjmo9","","","",""
"","html-button-response","1","56251","0.0-1.0-0.0","y94qvtjmo9","1270.8000000056927","<span class=stimul>à</span>","0","Correct"
"","html-button-response","2","56770","0.0-1.0-0.1","y94qvtjmo9","512.9999999990105","<span class=stimul>où</span>","0","Correct"
"","html-button-response","3","57292","0.0-1.0-0.2","y94qvtjmo9","518.3000000033644","<span class=stimul>la</span>","0","Correct"
"","html-button-response","4","57832","0.0-1.0-0.3","y94qvtjmo9","536.0000000000582","<span class=stimul>au</span>","0","Correct"
"","html-button-response","5","58398","0.0-1.0-0.4","y94qvtjmo9","562.8999999971711","<span class=stimul>tu</span>","0","Correct"
"","html-button-response","6","59166","0.0-1.0-0.5","y94qvtjmo9","763.1000000037602","<span class=stimul>un</span>","0","Correct"
"","html-button-response","7","59852","0.0-1.0-0.6","y94qvtjmo9","681.4999999987776","<span class=stimul>il</span>","0","Correct"
"","html-button-response","8","61392","0.0-1.0-0.7","y94qvtjmo9","1535.7999999978347","<span class=stimul>été</span>","1","Incorrect"
"","html-button-response","9","62297","0.0-1.0-0.8","y94qvtjmo9","901.8999999971129","<span class=stimul>on</span>","0","Correct"
"","html-button-response","10","63573","0.0-1.0-0.9","y94qvtjmo9","1271.999999997206","<span class=stimul>mur</span>","1","Incorrect"
"","html-button-response","11","64269","0.0-1.0-0.10","y94qvtjmo9","692.9999999993015","<span class=stimul>ni</span>","0","Correct"
"","html-button-response","12","64967","0.0-1.0-0.11","y94qvtjmo9","694.4999999977881","<span class=stimul>sur</span>","1","Incorrect"
"","html-button-response","13","65813","0.0-1.0-0.12","y94qvtjmo9","842.5999999963096","<span class=stimul>qui</span>","0","Correct"
"","html-button-response","14","67223","0.0-1.0-0.13","y94qvtjmo9","1406.5999999947962","<span class=stimul>vélo</span>","1","Incorrect"
