"success","trial_type","trial_index","time_elapsed","internal_node_id","ID","rt","stimulus","button_pressed","button_pressed_text"
"true","fullscreen","0","10861","0.0-0.0","gne7x4xznm","","","",""
"","html-button-response","1","11942","0.0-1.0-0.0","gne7x4xznm","1064.1999999970722","<span class=stimul>o</span>","0","Correct"
"","html-button-response","2","12295","0.0-1.0-0.1","gne7x4xznm","350.59999999793945","<span class=stimul>i</span>","0","Correct"
"","html-button-response","3","12524","0.0-1.0-0.2","gne7x4xznm","226.99999999895226","<span class=stimul>bi</span>","0","Correct"
"","html-button-response","4","12808","0.0-1.0-0.3","gne7x4xznm","280.800000000454","<span class=stimul>ul</span>","0","Correct"
"","html-button-response","5","13130","0.0-1.0-0.4","gne7x4xznm","319.8999999985972","<span class=stimul>til</span>","0","Correct"
"","html-button-response","6","13524","0.0-1.0-0.5","gne7x4xznm","391.9999999998254","<span class=stimul>ja</span>","0","Correct"
"","html-button-response","7","13876","0.0-1.0-0.6","gne7x4xznm","349.6999999988475","<span class=stimul>ol</span>","0","Correct"
"","html-button-response","8","14272","0.0-1.0-0.7","gne7x4xznm","393.59999999942374","<span class=stimul>ata</span>","0","Correct"
"","html-button-response","9","14599","0.0-1.0-0.8","gne7x4xznm","324.49999999880674","<span class=stimul>dik</span>","0","Correct"
"","html-button-response","10","15017","0.0-1.0-0.9","gne7x4xznm","416.4000000018859","<span class=stimul>nar</span>","0","Correct"
"","html-button-response","11","15468","0.0-1.0-0.10","gne7x4xznm","448.70000000082655","<span class=stimul>vaf</span>","0","Correct"
"","html-button-response","12","16019","0.0-1.0-0.11","gne7x4xznm","548.5000000007858","<span class=stimul>zou</span>","0","Correct"
"","html-button-response","13","16702","0.0-1.0-0.12","gne7x4xznm","679.0999999975611","<span class=stimul>dul</span>","0","Correct"
"","html-button-response","14","17200","0.0-1.0-0.13","gne7x4xznm","495.30000000231666","<span class=stimul>lévo</span>","0","Correct"
"","html-button-response","15","17980","0.0-1.0-0.14","gne7x4xznm","776.2000000002445","<span class=stimul>tur</span>","0","Correct"
"","html-button-response","16","18342","0.0-1.0-0.15","gne7x4xznm","358.8999999992666","<span class=stimul>veur</span>","0","Correct"
"","html-button-response","17","18816","0.0-1.0-0.16","gne7x4xznm","471.399999998539","<span class=stimul>col</span>","0","Correct"
"","html-button-response","18","19325","0.0-1.0-0.17","gne7x4xznm","505.4999999993015","<span class=stimul>noil</span>","0","Correct"
"","html-button-response","19","19809","0.0-1.0-0.18","gne7x4xznm","480.40000000037253","<span class=stimul>opa</span>","0","Correct"
"","html-button-response","20","20243","0.0-1.0-0.19","gne7x4xznm","430.70000000079744","<span class=stimul>jal</span>","0","Correct"
"","html-button-response","21","20677","0.0-1.0-0.20","gne7x4xznm","430.69999999715947","<span class=stimul>neau</span>","0","Correct"
"","html-button-response","22","21112","0.0-1.0-0.21","gne7x4xznm","431.49999999877764","<span class=stimul>timé</span>","0","Correct"
"","html-button-response","23","21497","0.0-1.0-0.22","gne7x4xznm","381.40000000203145","<span class=stimul>cal</span>","0","Correct"
"","html-button-response","24","21882","0.0-1.0-0.23","gne7x4xznm","381.70000000172877","<span class=stimul>tibe</span>","0","Correct"
"","html-button-response","25","22122","0.0-1.0-0.24","gne7x4xznm","236.19999999937136","<span class=stimul>lupe</span>","0","Correct"
"","html-button-response","26","22762","0.0-1.0-0.25","gne7x4xznm","636.899999997695","<span class=stimul>pirde</span>","0","Correct"
"","html-button-response","27","23302","0.0-1.0-0.26","gne7x4xznm","536.4999999983411","<span class=stimul>gor</span>","0","Correct"
"","html-button-response","28","23760","0.0-1.0-0.27","gne7x4xznm","453.7000000018452","<span class=stimul>ablir</span>","0","Correct"
"","html-button-response","29","24309","0.0-1.0-0.28","gne7x4xznm","545.5000000001746","<span class=stimul>sar</span>","0","Correct"
"","html-button-response","30","24752","0.0-1.0-0.29","gne7x4xznm","439.40000000293367","<span class=stimul>vaipe</span>","0","Correct"
"","html-button-response","31","25572","0.0-1.0-0.30","gne7x4xznm","816.8000000005122","<span class=stimul>cifale</span>","0","Correct"
"","html-button-response","32","26153","0.0-1.0-0.31","gne7x4xznm","577.1000000022468","<span class=stimul>sapir</span>","0","Correct"
"","html-button-response","33","26670","0.0-1.0-0.32","gne7x4xznm","513.6999999995169","<span class=stimul>vro</span>","0","Correct"
"","html-button-response","34","27325","0.0-1.0-0.33","gne7x4xznm","651.9000000007509","<span class=stimul>rigne</span>","0","Correct"
"","html-button-response","35","27876","0.0-1.0-0.34","gne7x4xznm","547.6999999991676","<span class=stimul>rosan</span>","0","Correct"
"","html-button-response","36","28505","0.0-1.0-0.35","gne7x4xznm","626.4999999984866","<span class=stimul>aubre</span>","0","Correct"
"","html-button-response","37","29103","0.0-1.0-0.36","gne7x4xznm","594.199999999546","<span class=stimul>talpe</span>","0","Correct"
"","html-button-response","38","30321","0.0-1.0-0.37","gne7x4xznm","1214.5999999993364","<span class=stimul>gur</span>","0","Correct"
"","html-button-response","39","30896","0.0-1.0-0.38","gne7x4xznm","571.8999999990046","<span class=stimul>louré</span>","0","Correct"
"","html-button-response","40","31788","0.0-1.0-0.39","gne7x4xznm","888.6000000020431","<span class=stimul>ragife</span>","0","Correct"
"","html-button-response","41","32482","0.0-1.0-0.40","gne7x4xznm","690.8000000003085","<span class=stimul>noge</span>","0","Correct"
"","html-button-response","42","32989","0.0-1.0-0.41","gne7x4xznm","504.0000000008149","<span class=stimul>tope</span>","0","Correct"
"","html-button-response","43","33489","0.0-1.0-0.42","gne7x4xznm","496.3999999999942","<span class=stimul>uché</span>","0","Correct"
"","html-button-response","44","33994","0.0-1.0-0.43","gne7x4xznm","502.199999998993","<span class=stimul>truson</span>","0","Correct"
"","html-button-response","45","34486","0.0-1.0-0.44","gne7x4xznm","488.09999999866704","<span class=stimul>ranli</span>","0","Correct"
"","html-button-response","46","35642","0.0-1.0-0.45","gne7x4xznm","1152.9000000009546","<span class=stimul>tosir</span>","0","Correct"
"","html-button-response","47","36280","0.0-1.0-0.46","gne7x4xznm","634.0000000018335","<span class=stimul>poitade</span>","0","Correct"
"","html-button-response","48","36902","0.0-1.0-0.47","gne7x4xznm","619.3999999995867","<span class=stimul>ousir</span>","0","Correct"
"","html-button-response","49","37579","0.0-1.0-0.48","gne7x4xznm","673.5000000007858","<span class=stimul>bapre</span>","0","Correct"
"","html-button-response","50","38536","0.0-1.0-0.49","gne7x4xznm","952.6999999980035","<span class=stimul>gigne</span>","0","Correct"
"","html-button-response","51","41237","0.0-1.0-0.50","gne7x4xznm","2698.00000000032","<span class=stimul>gésin</span>","0","Correct"
"","html-button-response","52","42219","0.0-1.0-0.51","gne7x4xznm","977.9000000016822","<span class=stimul>kraulir</span>","0","Correct"
"","html-button-response","53","42962","0.0-1.0-0.52","gne7x4xznm","738.9000000002852","<span class=stimul>cibe</span>","0","Correct"
"","html-button-response","54","44162","0.0-1.0-0.53","gne7x4xznm","1197.599999999511","<span class=stimul>maipe</span>","0","Correct"
"","html-button-response","55","44916","0.0-1.0-0.54","gne7x4xznm","750.5999999993946","<span class=stimul>ligase</span>","0","Correct"
"","html-button-response","56","45804","0.0-1.0-0.55","gne7x4xznm","883.6000000010245","<span class=stimul>gofi</span>","0","Correct"
"","html-button-response","57","47535","0.0-1.0-0.56","gne7x4xznm","1726.8000000003667","<span class=stimul>cipre</span>","0","Correct"
"","html-button-response","58","48056","0.0-1.0-0.57","gne7x4xznm","508.20000000021537","<span class=stimul>tasin</span>","0","Correct"
"","html-button-response","59","48533","0.0-1.0-0.58","gne7x4xznm","473.9000000008673","<span class=stimul>cipé</span>","0","Correct"
"","html-button-response","60","49650","0.0-1.0-0.59","gne7x4xznm","1112.6000000003842","<span class=stimul>punse</span>","0","Correct"
"true","fullscreen","61","50654","0.0-2.0","gne7x4xznm","","","",""
"true","fullscreen","0","69364","0.0-0.0","8mrbgdljhw","","","",""
"","html-button-response","1","70218","0.0-1.0-0.0","8mrbgdljhw","832.9999999987194","<span class=stimul>o</span>","0","Correct"
"","html-button-response","2","70627","0.0-1.0-0.1","8mrbgdljhw","406.1999999976251","<span class=stimul>i</span>","0","Correct"
"","html-button-response","3","70852","0.0-1.0-0.2","8mrbgdljhw","222.50000000349246","<span class=stimul>bi</span>","0","Correct"
"","html-button-response","4","71270","0.0-1.0-0.3","8mrbgdljhw","414.7999999986496","<span class=stimul>ul</span>","0","Correct"
"","html-button-response","5","71513","0.0-1.0-0.4","8mrbgdljhw","240.90000000433065","<span class=stimul>til</span>","0","Correct"
"","html-button-response","6","71800","0.0-1.0-0.5","8mrbgdljhw","284.1000000044005","<span class=stimul>ja</span>","0","Correct"
"","html-button-response","7","72075","0.0-1.0-0.6","8mrbgdljhw","273.00000000104774","<span class=stimul>ol</span>","0","Correct"
"","html-button-response","8","72366","0.0-1.0-0.7","8mrbgdljhw","289.49999999895226","<span class=stimul>ata</span>","0","Correct"
"","html-button-response","9","72827","0.0-1.0-0.8","8mrbgdljhw","458.0999999961932","<span class=stimul>dik</span>","0","Correct"
"","html-button-response","10","73100","0.0-1.0-0.9","8mrbgdljhw","271.0000000006403","<span class=stimul>nar</span>","0","Correct"
"","html-button-response","11","73379","0.0-1.0-0.10","8mrbgdljhw","276.4999999999418","<span class=stimul>vaf</span>","0","Correct"
"","html-button-response","12","73630","0.0-1.0-0.11","8mrbgdljhw","249.10000000090804","<span class=stimul>zou</span>","0","Correct"
"","html-button-response","13","74197","0.0-1.0-0.12","8mrbgdljhw","564.8000000001048","<span class=stimul>dul</span>","0","Correct"
"","html-button-response","14","74577","0.0-1.0-0.13","8mrbgdljhw","377.00000000040745","<span class=stimul>lévo</span>","0","Correct"
"","html-button-response","15","74972","0.0-1.0-0.14","8mrbgdljhw","391.5999999953783","<span class=stimul>tur</span>","0","Correct"
"","html-button-response","16","75464","0.0-1.0-0.15","8mrbgdljhw","488.89999999664724","<span class=stimul>veur</span>","0","Correct"
"","html-button-response","17","75858","0.0-1.0-0.16","8mrbgdljhw","390.79999999376014","<span class=stimul>col</span>","0","Correct"
"","html-button-response","18","76155","0.0-1.0-0.17","8mrbgdljhw","292.7999999956228","<span class=stimul>noil</span>","0","Correct"
"","html-button-response","19","76574","0.0-1.0-0.18","8mrbgdljhw","415.4000000053202","<span class=stimul>opa</span>","0","Correct"
"","html-button-response","20","76967","0.0-1.0-0.19","8mrbgdljhw","389.7999999971944","<span class=stimul>jal</span>","0","Correct"
"","html-button-response","21","77360","0.0-1.0-0.20","8mrbgdljhw","389.6000000022468","<span class=stimul>neau</span>","0","Correct"
"","html-button-response","22","77650","0.0-1.0-0.21","8mrbgdljhw","286.3000000070315","<span class=stimul>timé</span>","0","Correct"
"","html-button-response","23","78131","0.0-1.0-0.22","8mrbgdljhw","478.00000000279397","<span class=stimul>cal</span>","0","Correct"
"","html-button-response","24","78543","0.0-1.0-0.23","8mrbgdljhw","407.8000000008615","<span class=stimul>tibe</span>","0","Correct"
"","html-button-response","25","78853","0.0-1.0-0.24","8mrbgdljhw","306.7000000010012","<span class=stimul>lupe</span>","0","Correct"
"","html-button-response","26","79117","0.0-1.0-0.25","8mrbgdljhw","260.90000000112923","<span class=stimul>pirde</span>","0","Correct"
"","html-button-response","27","79419","0.0-1.0-0.26","8mrbgdljhw","298.8000000041211","<span class=stimul>gor</span>","0","Correct"
"","html-button-response","28","79723","0.0-1.0-0.27","8mrbgdljhw","300.4000000000815","<span class=stimul>ablir</span>","0","Correct"
"","html-button-response","29","80192","0.0-1.0-0.28","8mrbgdljhw","465.7000000006519","<span class=stimul>sar</span>","0","Correct"
"","html-button-response","30","80463","0.0-1.0-0.29","8mrbgdljhw","266.9000000023516","<span class=stimul>vaipe</span>","0","Correct"
"","html-button-response","31","80842","0.0-1.0-0.30","8mrbgdljhw","375.89999999909196","<span class=stimul>cifale</span>","0","Correct"
"","html-button-response","32","81271","0.0-1.0-0.31","8mrbgdljhw","425.4000000000815","<span class=stimul>sapir</span>","0","Correct"
"","html-button-response","33","81653","0.0-1.0-0.32","8mrbgdljhw","378.7999999985914","<span class=stimul>vro</span>","0","Correct"
"","html-button-response","34","82053","0.0-1.0-0.33","8mrbgdljhw","395.5999999961932","<span class=stimul>rigne</span>","0","Correct"
"","html-button-response","35","82378","0.0-1.0-0.34","8mrbgdljhw","321.29999999597203","<span class=stimul>rosan</span>","0","Correct"
"","html-button-response","36","82887","0.0-1.0-0.35","8mrbgdljhw","505.8999999964726","<span class=stimul>aubre</span>","0","Correct"
"","html-button-response","37","83348","0.0-1.0-0.36","8mrbgdljhw","457.2000000043772","<span class=stimul>talpe</span>","0","Correct"
"","html-button-response","38","83930","0.0-1.0-0.37","8mrbgdljhw","578.6999999982072","<span class=stimul>gur</span>","0","Correct"
"","html-button-response","39","84670","0.0-1.0-0.38","8mrbgdljhw","736.5999999965425","<span class=stimul>louré</span>","0","Correct"
"","html-button-response","40","85055","0.0-1.0-0.39","8mrbgdljhw","381.2999999936437","<span class=stimul>ragife</span>","0","Correct"
"","html-button-response","41","85304","0.0-1.0-0.40","8mrbgdljhw","245.60000000201399","<span class=stimul>noge</span>","0","Correct"
"","html-button-response","42","85925","0.0-1.0-0.41","8mrbgdljhw","617.4000000028173","<span class=stimul>tope</span>","0","Correct"
"","html-button-response","43","86516","0.0-1.0-0.42","8mrbgdljhw","587.3999999967054","<span class=stimul>uché</span>","0","Correct"
"","html-button-response","44","87002","0.0-1.0-0.43","8mrbgdljhw","482.40000000078","<span class=stimul>truson</span>","0","Correct"
"","html-button-response","45","87281","0.0-1.0-0.44","8mrbgdljhw","275.60000000084983","<span class=stimul>ranli</span>","0","Correct"
"","html-button-response","46","87577","0.0-1.0-0.45","8mrbgdljhw","292.3999999984517","<span class=stimul>tosir</span>","0","Correct"
"","html-button-response","47","88085","0.0-1.0-0.46","8mrbgdljhw","504.0999999982887","<span class=stimul>poitade</span>","0","Correct"
"","html-button-response","48","88487","0.0-1.0-0.47","8mrbgdljhw","398.8000000026659","<span class=stimul>ousir</span>","0","Correct"
"","html-button-response","49","88757","0.0-1.0-0.48","8mrbgdljhw","267.1000000045751","<span class=stimul>bapre</span>","0","Correct"
"","html-button-response","50","89256","0.0-1.0-0.49","8mrbgdljhw","494.29999999847496","<span class=stimul>gigne</span>","0","Correct"
"","html-button-response","51","89741","0.0-1.0-0.50","8mrbgdljhw","482.10000000108266","<span class=stimul>gésin</span>","0","Correct"
"","html-button-response","52","90118","0.0-1.0-0.51","8mrbgdljhw","372.799999997369","<span class=stimul>kraulir</span>","0","Correct"
"","html-button-response","53","90422","0.0-1.0-0.52","8mrbgdljhw","300.600000002305","<span class=stimul>cibe</span>","0","Correct"
"","html-button-response","54","90642","0.0-1.0-0.53","8mrbgdljhw","216.8999999994412","<span class=stimul>maipe</span>","0","Correct"
"","html-button-response","55","90824","0.0-1.0-0.54","8mrbgdljhw","178.2999999995809","<span class=stimul>ligase</span>","0","Correct"
"","html-button-response","56","91088","0.0-1.0-0.55","8mrbgdljhw","260.90000000112923","<span class=stimul>gofi</span>","0","Correct"
"","html-button-response","57","91395","0.0-1.0-0.56","8mrbgdljhw","303.50000000180444","<span class=stimul>cipre</span>","0","Correct"
"","html-button-response","58","91758","0.0-1.0-0.57","8mrbgdljhw","359.79999999835854","<span class=stimul>tasin</span>","0","Correct"
"","html-button-response","59","92204","0.0-1.0-0.58","8mrbgdljhw","442.6999999996042","<span class=stimul>cipé</span>","0","Correct"
"","html-button-response","60","92609","0.0-1.0-0.59","8mrbgdljhw","401.400000002468","<span class=stimul>punse</span>","0","Correct"
"true","fullscreen","61","93612","0.0-2.0","8mrbgdljhw","","","",""
"true","fullscreen","0","7951","0.0-0.0","jtq5fea6w4","","","",""
"","html-button-response","1","8747","0.0-1.0-0.0","jtq5fea6w4","782.3999999964144","<span class=stimul>o</span>","0","Correct"
"","html-button-response","2","9242","0.0-1.0-0.1","jtq5fea6w4","489.6000000007916","<span class=stimul>i</span>","0","Correct"
"","html-button-response","3","9743","0.0-1.0-0.2","jtq5fea6w4","497.80000000464497","<span class=stimul>bi</span>","0","Correct"
"","html-button-response","4","10918","0.0-1.0-0.3","jtq5fea6w4","1171.3999999992666","<span class=stimul>ul</span>","0","Correct"
"","html-button-response","5","11380","0.0-1.0-0.4","jtq5fea6w4","458.4000000031665","<span class=stimul>til</span>","0","Correct"
"","html-button-response","6","11941","0.0-1.0-0.5","jtq5fea6w4","556.8000000057509","<span class=stimul>ja</span>","0","Correct"
"","html-button-response","7","12525","0.0-1.0-0.6","jtq5fea6w4","580.0000000017462","<span class=stimul>ol</span>","0","Correct"
"","html-button-response","8","13149","0.0-1.0-0.7","jtq5fea6w4","620.6999999994878","<span class=stimul>ata</span>","0","Correct"
"","html-button-response","9","13807","0.0-1.0-0.8","jtq5fea6w4","654.3999999994412","<span class=stimul>dik</span>","0","Correct"
"","html-button-response","10","14455","0.0-1.0-0.9","jtq5fea6w4","644.6000000069034","<span class=stimul>nar</span>","0","Correct"
"","html-button-response","11","15219","0.0-1.0-0.10","jtq5fea6w4","760.3999999992084","<span class=stimul>vaf</span>","0","Correct"
"","html-button-response","12","15934","0.0-1.0-0.11","jtq5fea6w4","711.699999999837","<span class=stimul>zou</span>","0","Correct"
"","html-button-response","13","16585","0.0-1.0-0.12","jtq5fea6w4","647.6000000038766","<span class=stimul>dul</span>","0","Correct"
"","html-button-response","14","17236","0.0-1.0-0.13","jtq5fea6w4","646.4999999952852","<span class=stimul>lévo</span>","0","Correct"
"","html-button-response","15","18060","0.0-1.0-0.14","jtq5fea6w4","820.2999999994063","<span class=stimul>tur</span>","0","Correct"
"","html-button-response","16","18664","0.0-1.0-0.15","jtq5fea6w4","601.1999999973341","<span class=stimul>veur</span>","0","Correct"
"","html-button-response","17","19274","0.0-1.0-0.16","jtq5fea6w4","606.2000000019907","<span class=stimul>col</span>","0","Correct"
"","html-button-response","18","19965","0.0-1.0-0.17","jtq5fea6w4","686.9000000006054","<span class=stimul>noil</span>","0","Correct"
"","html-button-response","19","20607","0.0-1.0-0.18","jtq5fea6w4","638.6000000056811","<span class=stimul>opa</span>","0","Correct"
"","html-button-response","20","21207","0.0-1.0-0.19","jtq5fea6w4","596.2999999974272","<span class=stimul>jal</span>","0","Correct"
"","html-button-response","21","21767","0.0-1.0-0.20","jtq5fea6w4","557.1000000054482","<span class=stimul>neau</span>","0","Correct"
"","html-button-response","22","22360","0.0-1.0-0.21","jtq5fea6w4","588.7999999977183","<span class=stimul>timé</span>","0","Correct"
"","html-button-response","23","22943","0.0-1.0-0.22","jtq5fea6w4","579.7999999995227","<span class=stimul>cal</span>","0","Correct"
"","html-button-response","24","23595","0.0-1.0-0.23","jtq5fea6w4","648.1999999959953","<span class=stimul>tibe</span>","0","Correct"
"","html-button-response","25","24350","0.0-1.0-0.24","jtq5fea6w4","751.9000000029337","<span class=stimul>lupe</span>","0","Correct"
"","html-button-response","26","24943","0.0-1.0-0.25","jtq5fea6w4","589.2000000021653","<span class=stimul>pirde</span>","0","Correct"
"","html-button-response","27","25569","0.0-1.0-0.26","jtq5fea6w4","622.1999999979744","<span class=stimul>gor</span>","0","Correct"
"","html-button-response","28","26865","0.0-1.0-0.27","jtq5fea6w4","1292.9000000003725","<span class=stimul>ablir</span>","0","Correct"
"","html-button-response","29","27424","0.0-1.0-0.28","jtq5fea6w4","555.2999999999884","<span class=stimul>sar</span>","0","Correct"
"","html-button-response","30","28041","0.0-1.0-0.29","jtq5fea6w4","613.1999999997788","<span class=stimul>vaipe</span>","0","Correct"
"","html-button-response","31","28673","0.0-1.0-0.30","jtq5fea6w4","628.7999999985914","<span class=stimul>cifale</span>","0","Correct"
"","html-button-response","32","29281","0.0-1.0-0.31","jtq5fea6w4","604.3999999965308","<span class=stimul>sapir</span>","0","Correct"
"","html-button-response","33","29951","0.0-1.0-0.32","jtq5fea6w4","665.8000000024913","<span class=stimul>vro</span>","0","Correct"
"","html-button-response","34","30573","0.0-1.0-0.33","jtq5fea6w4","615.9000000043306","<span class=stimul>rigne</span>","0","Correct"
"","html-button-response","35","31158","0.0-1.0-0.34","jtq5fea6w4","581.5999999977066","<span class=stimul>rosan</span>","0","Correct"
"","html-button-response","36","31930","0.0-1.0-0.35","jtq5fea6w4","768.6000000030617","<span class=stimul>aubre</span>","0","Correct"
"","html-button-response","37","32648","0.0-1.0-0.36","jtq5fea6w4","713.900000002468","<span class=stimul>talpe</span>","0","Correct"
"","html-button-response","38","33421","0.0-1.0-0.37","jtq5fea6w4","769.5000000021537","<span class=stimul>gur</span>","0","Correct"
"","html-button-response","39","34039","0.0-1.0-0.38","jtq5fea6w4","613.8999999966472","<span class=stimul>louré</span>","0","Correct"
"","html-button-response","40","34688","0.0-1.0-0.39","jtq5fea6w4","646.3000000003376","<span class=stimul>ragife</span>","0","Correct"
"","html-button-response","41","35544","0.0-1.0-0.40","jtq5fea6w4","851.4999999970314","<span class=stimul>noge</span>","0","Correct"
"","html-button-response","42","38277","0.0-1.0-0.41","jtq5fea6w4","2729.5000000012806","<span class=stimul>tope</span>","0","Correct"
"","html-button-response","43","39618","0.0-1.0-0.42","jtq5fea6w4","1337.7000000036787","<span class=stimul>uché</span>","0","Correct"
"","html-button-response","44","40188","0.0-1.0-0.43","jtq5fea6w4","566.4000000033411","<span class=stimul>truson</span>","0","Correct"
"","html-button-response","45","40819","0.0-1.0-0.44","jtq5fea6w4","626.5999999959604","<span class=stimul>ranli</span>","0","Correct"
"","html-button-response","46","41427","0.0-1.0-0.45","jtq5fea6w4","604.4000000038068","<span class=stimul>tosir</span>","0","Correct"
"","html-button-response","47","42225","0.0-1.0-0.46","jtq5fea6w4","794.6999999985565","<span class=stimul>poitade</span>","0","Correct"
"","html-button-response","48","42868","0.0-1.0-0.47","jtq5fea6w4","638.8000000006286","<span class=stimul>ousir</span>","0","Correct"
"","html-button-response","49","43699","0.0-1.0-0.48","jtq5fea6w4","827.7000000016415","<span class=stimul>bapre</span>","0","Correct"
"","html-button-response","50","44512","0.0-1.0-0.49","jtq5fea6w4","809.5999999932246","<span class=stimul>gigne</span>","0","Correct"
"","html-button-response","51","46663","0.0-1.0-0.50","jtq5fea6w4","2147.100000001956","<span class=stimul>gésin</span>","0","Correct"
"","html-button-response","52","50014","0.0-1.0-0.51","jtq5fea6w4","3347.0999999990454","<span class=stimul>kraulir</span>","0","Correct"
"","html-button-response","53","51059","0.0-1.0-0.52","jtq5fea6w4","1040.099999998347","<span class=stimul>cibe</span>","0","Correct"
"","html-button-response","54","51627","0.0-1.0-0.53","jtq5fea6w4","563.9000000010128","<span class=stimul>maipe</span>","0","Correct"
"","html-button-response","55","52113","0.0-1.0-0.54","jtq5fea6w4","482.7000000004773","<span class=stimul>ligase</span>","0","Correct"
"","html-button-response","56","52713","0.0-1.0-0.55","jtq5fea6w4","596.399999994901","<span class=stimul>gofi</span>","0","Correct"
"","html-button-response","57","53197","0.0-1.0-0.56","jtq5fea6w4","480.4999999978463","<span class=stimul>cipre</span>","0","Correct"
"","html-button-response","58","53714","0.0-1.0-0.57","jtq5fea6w4","512.9999999990105","<span class=stimul>tasin</span>","0","Correct"
"","html-button-response","59","54190","0.0-1.0-0.58","jtq5fea6w4","473.4000000025844","<span class=stimul>cipé</span>","0","Correct"
"","html-button-response","60","54494","0.0-1.0-0.59","jtq5fea6w4","300.4000000000815","<span class=stimul>punse</span>","0","Correct"
"true","fullscreen","61","55497","0.0-2.0","jtq5fea6w4","","","",""
"true","fullscreen","0","12531","0.0-0.0","jrqlfcvgdq","","","",""
"","html-button-response","1","13321","0.0-1.0-0.0","jrqlfcvgdq","766.7000000001281","<span class=stimul>o</span>","0","Correct"
"","html-button-response","2","13762","0.0-1.0-0.1","jrqlfcvgdq","436.40000000596046","<span class=stimul>i</span>","0","Correct"
"","html-button-response","3","14174","0.0-1.0-0.2","jrqlfcvgdq","408.3000000027823","<span class=stimul>bi</span>","0","Correct"
"","html-button-response","4","14670","0.0-1.0-0.3","jrqlfcvgdq","492.5999999977648","<span class=stimul>ul</span>","0","Correct"
"","html-button-response","5","15096","0.0-1.0-0.4","jrqlfcvgdq","422.59999999805586","<span class=stimul>til</span>","0","Correct"
"","html-button-response","6","15530","0.0-1.0-0.5","jrqlfcvgdq","430.5999999996857","<span class=stimul>ja</span>","0","Correct"
"","html-button-response","7","16005","0.0-1.0-0.6","jrqlfcvgdq","471.7999999993481","<span class=stimul>ol</span>","0","Correct"
"","html-button-response","8","16381","0.0-1.0-0.7","jrqlfcvgdq","372.1999999979744","<span class=stimul>ata</span>","0","Correct"
"","html-button-response","9","16815","0.0-1.0-0.8","jrqlfcvgdq","430.5000000022119","<span class=stimul>dik</span>","0","Correct"
"","html-button-response","10","17339","0.0-1.0-0.9","jrqlfcvgdq","519.9999999967986","<span class=stimul>nar</span>","0","Correct"
"","html-button-response","11","17761","0.0-1.0-0.10","jrqlfcvgdq","418.29999999754364","<span class=stimul>vaf</span>","0","Correct"
"","html-button-response","12","18248","0.0-1.0-0.11","jrqlfcvgdq","483.8999999992666","<span class=stimul>zou</span>","0","Correct"
"","html-button-response","13","19003","0.0-1.0-0.12","jrqlfcvgdq","750.9999999965657","<span class=stimul>dul</span>","0","Correct"
"","html-button-response","14","19526","0.0-1.0-0.13","jrqlfcvgdq","519.8999999993248","<span class=stimul>lévo</span>","0","Correct"
"","html-button-response","15","20255","0.0-1.0-0.14","jrqlfcvgdq","725.5000000004657","<span class=stimul>tur</span>","0","Correct"
"","html-button-response","16","20787","0.0-1.0-0.15","jrqlfcvgdq","528.8999999975204","<span class=stimul>veur</span>","0","Correct"
"","html-button-response","17","21784","0.0-1.0-0.16","jrqlfcvgdq","993.6999999990803","<span class=stimul>col</span>","0","Correct"
"","html-button-response","18","22288","0.0-1.0-0.17","jrqlfcvgdq","499.1999999983818","<span class=stimul>noil</span>","0","Correct"
"","html-button-response","19","22783","0.0-1.0-0.18","jrqlfcvgdq","491.20000000402797","<span class=stimul>opa</span>","0","Correct"
"","html-button-response","20","23276","0.0-1.0-0.19","jrqlfcvgdq","489.40000000584405","<span class=stimul>jal</span>","0","Correct"
"","html-button-response","21","23797","0.0-1.0-0.20","jrqlfcvgdq","517.2999999995227","<span class=stimul>neau</span>","0","Correct"
"","html-button-response","22","24297","0.0-1.0-0.21","jrqlfcvgdq","496.59999999857973","<span class=stimul>timé</span>","0","Correct"
"","html-button-response","23","24773","0.0-1.0-0.22","jrqlfcvgdq","472.3000000012689","<span class=stimul>cal</span>","0","Correct"
"","html-button-response","24","25255","0.0-1.0-0.23","jrqlfcvgdq","478.7999999971362","<span class=stimul>tibe</span>","0","Correct"
"","html-button-response","25","26058","0.0-1.0-0.24","jrqlfcvgdq","798.2999999949243","<span class=stimul>lupe</span>","0","Correct"
"","html-button-response","26","27242","0.0-1.0-0.25","jrqlfcvgdq","1180.2999999999884","<span class=stimul>pirde</span>","0","Correct"
"","html-button-response","27","28061","0.0-1.0-0.26","jrqlfcvgdq","816.2999999985914","<span class=stimul>gor</span>","0","Correct"
"","html-button-response","28","29074","0.0-1.0-0.27","jrqlfcvgdq","1009.4000000026426","<span class=stimul>ablir</span>","0","Correct"
"","html-button-response","29","29613","0.0-1.0-0.28","jrqlfcvgdq","535.1000000009662","<span class=stimul>sar</span>","0","Correct"
"","html-button-response","30","30367","0.0-1.0-0.29","jrqlfcvgdq","749.7999999977765","<span class=stimul>vaipe</span>","0","Correct"
"","html-button-response","31","30948","0.0-1.0-0.30","jrqlfcvgdq","577.4000000019441","<span class=stimul>cifale</span>","0","Correct"
"","html-button-response","32","31519","0.0-1.0-0.31","jrqlfcvgdq","567.9999999993015","<span class=stimul>sapir</span>","0","Correct"
"","html-button-response","33","32090","0.0-1.0-0.32","jrqlfcvgdq","567.1999999976833","<span class=stimul>vro</span>","0","Correct"
"","html-button-response","34","32625","0.0-1.0-0.33","jrqlfcvgdq","530.6999999957043","<span class=stimul>rigne</span>","0","Correct"
"","html-button-response","35","33415","0.0-1.0-0.34","jrqlfcvgdq","787.0000000038999","<span class=stimul>rosan</span>","0","Correct"
"","html-button-response","36","34109","0.0-1.0-0.35","jrqlfcvgdq","689.8000000001048","<span class=stimul>aubre</span>","0","Correct"
"","html-button-response","37","34812","0.0-1.0-0.36","jrqlfcvgdq","699.2000000027474","<span class=stimul>talpe</span>","0","Correct"
"","html-button-response","38","35294","0.0-1.0-0.37","jrqlfcvgdq","478.49999999743886","<span class=stimul>gur</span>","0","Correct"
"","html-button-response","39","35883","0.0-1.0-0.38","jrqlfcvgdq","585.8000000007451","<span class=stimul>louré</span>","0","Correct"
"","html-button-response","40","36495","0.0-1.0-0.39","jrqlfcvgdq","608.0000000001746","<span class=stimul>ragife</span>","0","Correct"
"","html-button-response","41","37133","0.0-1.0-0.40","jrqlfcvgdq","634.4000000026426","<span class=stimul>noge</span>","0","Correct"
"","html-button-response","42","38047","0.0-1.0-0.41","jrqlfcvgdq","910.9000000025844","<span class=stimul>tope</span>","0","Correct"
"","html-button-response","43","38630","0.0-1.0-0.42","jrqlfcvgdq","578.6999999982072","<span class=stimul>uché</span>","0","Correct"
"","html-button-response","44","39241","0.0-1.0-0.43","jrqlfcvgdq","607.1000000010827","<span class=stimul>truson</span>","0","Correct"
"","html-button-response","45","39854","0.0-1.0-0.44","jrqlfcvgdq","610.1999999955297","<span class=stimul>ranli</span>","0","Correct"
"","html-button-response","46","40183","0.0-1.0-0.45","jrqlfcvgdq","324.9999999970896","<span class=stimul>tosir</span>","0","Correct"
"","html-button-response","47","42576","0.0-1.0-0.46","jrqlfcvgdq","2390.2000000016415","<span class=stimul>poitade</span>","0","Correct"
"","html-button-response","48","44408","0.0-1.0-0.47","jrqlfcvgdq","1827.4000000019441","<span class=stimul>ousir</span>","0","Correct"
"","html-button-response","49","45094","0.0-1.0-0.48","jrqlfcvgdq","682.0000000006985","<span class=stimul>bapre</span>","0","Correct"
"","html-button-response","50","45878","0.0-1.0-0.49","jrqlfcvgdq","781.3999999998487","<span class=stimul>gigne</span>","0","Correct"
"","html-button-response","51","47031","0.0-1.0-0.50","jrqlfcvgdq","1148.6000000004424","<span class=stimul>gésin</span>","0","Correct"
"","html-button-response","52","47841","0.0-1.0-0.51","jrqlfcvgdq","806.4000000013039","<span class=stimul>kraulir</span>","0","Correct"
"","html-button-response","53","48494","0.0-1.0-0.52","jrqlfcvgdq","650.099999998929","<span class=stimul>cibe</span>","0","Correct"
"","html-button-response","54","49091","0.0-1.0-0.53","jrqlfcvgdq","592.9000000032829","<span class=stimul>maipe</span>","0","Correct"
"","html-button-response","55","49737","0.0-1.0-0.54","jrqlfcvgdq","642.2999999995227","<span class=stimul>ligase</span>","0","Correct"
"","html-button-response","56","50783","0.0-1.0-0.55","jrqlfcvgdq","1042.200000003504","<span class=stimul>gofi</span>","0","Correct"
"","html-button-response","57","52294","0.0-1.0-0.56","jrqlfcvgdq","1507.7000000019325","<span class=stimul>cipre</span>","0","Correct"
"","html-button-response","58","53507","0.0-1.0-0.57","jrqlfcvgdq","1209.3999999997322","<span class=stimul>tasin</span>","0","Correct"
"","html-button-response","59","54314","0.0-1.0-0.58","jrqlfcvgdq","802.7000000001863","<span class=stimul>cipé</span>","0","Correct"
"","html-button-response","60","54715","0.0-1.0-0.59","jrqlfcvgdq","397.29999999690335","<span class=stimul>punse</span>","0","Correct"
"true","fullscreen","61","55718","0.0-2.0","jrqlfcvgdq","","","",""
"true","fullscreen","0","7802","0.0-0.0","vh28975p0v","","","",""
"","html-button-response","1","10861","0.0-1.0-0.0","vh28975p0v","3035.1000000009662","<span class=stimul>o</span>","0","Correct"
"","html-button-response","2","11175","0.0-1.0-0.1","vh28975p0v","308.3999999980733","<span class=stimul>i</span>","0","Correct"
"","html-button-response","3","11456","0.0-1.0-0.2","vh28975p0v","275.8999999969092","<span class=stimul>bi</span>","0","Correct"
"","html-button-response","4","11897","0.0-1.0-0.3","vh28975p0v","437.29999999777647","<span class=stimul>ul</span>","0","Correct"
"","html-button-response","5","12296","0.0-1.0-0.4","vh28975p0v","394.29999999993015","<span class=stimul>til</span>","0","Correct"
"","html-button-response","6","12701","0.0-1.0-0.5","vh28975p0v","400.90000000054715","<span class=stimul>ja</span>","0","Correct"
"","html-button-response","7","13084","0.0-1.0-0.6","vh28975p0v","378.6000000000058","<span class=stimul>ol</span>","0","Correct"
"","html-button-response","8","13483","0.0-1.0-0.7","vh28975p0v","394.800000001851","<span class=stimul>ata</span>","0","Correct"
"","html-button-response","9","13940","0.0-1.0-0.8","vh28975p0v","453.59999999709544","<span class=stimul>dik</span>","0","Correct"
"","html-button-response","10","14294","0.0-1.0-0.9","vh28975p0v","349.6999999988475","<span class=stimul>nar</span>","0","Correct"
"","html-button-response","11","14903","0.0-1.0-0.10","vh28975p0v","605.0999999970372","<span class=stimul>vaf</span>","0","Correct"
"","html-button-response","12","15318","0.0-1.0-0.11","vh28975p0v","411.4000000008673","<span class=stimul>zou</span>","0","Correct"
"","html-button-response","13","15774","0.0-1.0-0.12","vh28975p0v","451.7999999989115","<span class=stimul>dul</span>","0","Correct"
"","html-button-response","14","16264","0.0-1.0-0.13","vh28975p0v","486.19999999937136","<span class=stimul>lévo</span>","0","Correct"
"","html-button-response","15","16794","0.0-1.0-0.14","vh28975p0v","525.9999999980209","<span class=stimul>tur</span>","0","Correct"
"","html-button-response","16","17233","0.0-1.0-0.15","vh28975p0v","435.40000000211876","<span class=stimul>veur</span>","0","Correct"
"","html-button-response","17","17732","0.0-1.0-0.16","vh28975p0v","496.3999999999942","<span class=stimul>col</span>","0","Correct"
"","html-button-response","18","18298","0.0-1.0-0.17","vh28975p0v","561.9999999980791","<span class=stimul>noil</span>","0","Correct"
"","html-button-response","19","20356","0.0-1.0-0.18","vh28975p0v","2053.70000000039","<span class=stimul>opa</span>","0","Correct"
"","html-button-response","20","20862","0.0-1.0-0.19","vh28975p0v","502.4999999986903","<span class=stimul>jal</span>","0","Correct"
"","html-button-response","21","21333","0.0-1.0-0.20","vh28975p0v","467.40000000136206","<span class=stimul>neau</span>","0","Correct"
"","html-button-response","22","21806","0.0-1.0-0.21","vh28975p0v","468.4000000015658","<span class=stimul>timé</span>","0","Correct"
"","html-button-response","23","22365","0.0-1.0-0.22","vh28975p0v","554.8999999991793","<span class=stimul>cal</span>","0","Correct"
"","html-button-response","24","22752","0.0-1.0-0.23","vh28975p0v","379.8000000024331","<span class=stimul>tibe</span>","0","Correct"
"","html-button-response","25","23142","0.0-1.0-0.24","vh28975p0v","385.7000000025437","<span class=stimul>lupe</span>","0","Correct"
"","html-button-response","26","23475","0.0-1.0-0.25","vh28975p0v","329.4999999998254","<span class=stimul>pirde</span>","0","Correct"
"","html-button-response","27","23954","0.0-1.0-0.26","vh28975p0v","475.6999999990512","<span class=stimul>gor</span>","0","Correct"
"","html-button-response","28","24437","0.0-1.0-0.27","vh28975p0v","479.19999999794527","<span class=stimul>ablir</span>","0","Correct"
"","html-button-response","29","24902","0.0-1.0-0.28","vh28975p0v","460.6999999996333","<span class=stimul>sar</span>","0","Correct"
"","html-button-response","30","25319","0.0-1.0-0.29","vh28975p0v","413.1000000015774","<span class=stimul>vaipe</span>","0","Correct"
"","html-button-response","31","25765","0.0-1.0-0.30","vh28975p0v","442.5999999984924","<span class=stimul>cifale</span>","0","Correct"
"","html-button-response","32","26205","0.0-1.0-0.31","vh28975p0v","435.1999999998952","<span class=stimul>sapir</span>","0","Correct"
"","html-button-response","33","26622","0.0-1.0-0.32","vh28975p0v","413.9000000031956","<span class=stimul>vro</span>","0","Correct"
"","html-button-response","34","27022","0.0-1.0-0.33","vh28975p0v","395.8999999995285","<span class=stimul>rigne</span>","0","Correct"
"","html-button-response","35","27484","0.0-1.0-0.34","vh28975p0v","458.30000000205473","<span class=stimul>rosan</span>","0","Correct"
"","html-button-response","36","27865","0.0-1.0-0.35","vh28975p0v","377.3000000001048","<span class=stimul>aubre</span>","0","Correct"
"","html-button-response","37","28330","0.0-1.0-0.36","vh28975p0v","461.4000000001397","<span class=stimul>talpe</span>","0","Correct"
"","html-button-response","38","28761","0.0-1.0-0.37","vh28975p0v","426.499999997759","<span class=stimul>gur</span>","0","Correct"
"","html-button-response","39","29084","0.0-1.0-0.38","vh28975p0v","319.5000000014261","<span class=stimul>louré</span>","0","Correct"
"","html-button-response","40","29557","0.0-1.0-0.39","vh28975p0v","469.60000000035507","<span class=stimul>ragife</span>","0","Correct"
"","html-button-response","41","29981","0.0-1.0-0.40","vh28975p0v","419.0999999991618","<span class=stimul>noge</span>","0","Correct"
"","html-button-response","42","30455","0.0-1.0-0.41","vh28975p0v","470.40000000197324","<span class=stimul>tope</span>","0","Correct"
"","html-button-response","43","30919","0.0-1.0-0.42","vh28975p0v","459.9999999991269","<span class=stimul>uché</span>","0","Correct"
"","html-button-response","44","31393","0.0-1.0-0.43","vh28975p0v","470.6000000005588","<span class=stimul>truson</span>","0","Correct"
"","html-button-response","45","31825","0.0-1.0-0.44","vh28975p0v","428.40000000069267","<span class=stimul>ranli</span>","0","Correct"
"","html-button-response","46","32421","0.0-1.0-0.45","vh28975p0v","591.8000000019674","<span class=stimul>tosir</span>","0","Correct"
"","html-button-response","47","32807","0.0-1.0-0.46","vh28975p0v","381.79999999920256","<span class=stimul>poitade</span>","0","Correct"
"","html-button-response","48","33295","0.0-1.0-0.47","vh28975p0v","484.1999999989639","<span class=stimul>ousir</span>","0","Correct"
"","html-button-response","49","34126","0.0-1.0-0.48","vh28975p0v","827.4999999994179","<span class=stimul>bapre</span>","0","Correct"
"","html-button-response","50","34748","0.0-1.0-0.49","vh28975p0v","618.2000000007974","<span class=stimul>gigne</span>","0","Correct"
"","html-button-response","51","35271","0.0-1.0-0.50","vh28975p0v","519.1999999988184","<span class=stimul>gésin</span>","0","Correct"
"","html-button-response","52","35679","0.0-1.0-0.51","vh28975p0v","404.499999996915","<span class=stimul>kraulir</span>","0","Correct"
"","html-button-response","53","36062","0.0-1.0-0.52","vh28975p0v","378.2999999966705","<span class=stimul>cibe</span>","0","Correct"
"","html-button-response","54","36498","0.0-1.0-0.53","vh28975p0v","432.6999999975669","<span class=stimul>maipe</span>","0","Correct"
"","html-button-response","55","36924","0.0-1.0-0.54","vh28975p0v","421.80000000007567","<span class=stimul>ligase</span>","0","Correct"
"","html-button-response","56","37332","0.0-1.0-0.55","vh28975p0v","403.90000000115833","<span class=stimul>gofi</span>","0","Correct"
"","html-button-response","57","37772","0.0-1.0-0.56","vh28975p0v","435.9999999978754","<span class=stimul>cipre</span>","0","Correct"
"","html-button-response","58","38353","0.0-1.0-0.57","vh28975p0v","577.2000000033586","<span class=stimul>tasin</span>","0","Correct"
"","html-button-response","59","38783","0.0-1.0-0.58","vh28975p0v","425.7999999972526","<span class=stimul>cipé</span>","0","Correct"
"","html-button-response","60","39388","0.0-1.0-0.59","vh28975p0v","601.6999999992549","<span class=stimul>punse</span>","0","Correct"
"true","fullscreen","61","40392","0.0-2.0","vh28975p0v","","","",""
"true","fullscreen","0","6441","0.0-0.0","y122temxxx","","","",""
"","html-button-response","1","7548","0.0-1.0-0.0","y122temxxx","1085.2000000013504","<span class=stimul>à</span>","0","Correct"
"","html-button-response","2","8205","0.0-1.0-0.1","y122temxxx","652.3999999990338","<span class=stimul>où</span>","0","Correct"
"","html-button-response","3","9210","0.0-1.0-0.2","y122temxxx","1000.0999999974738","<span class=stimul>la</span>","0","Correct"
"","html-button-response","4","9726","0.0-1.0-0.3","y122temxxx","511.3000000019383","<span class=stimul>au</span>","0","Correct"
"","html-button-response","5","10711","0.0-1.0-0.4","y122temxxx","981.1999999983527","<span class=stimul>tu</span>","0","Correct"
"","html-button-response","6","11221","0.0-1.0-0.5","y122temxxx","505.39999999818974","<span class=stimul>un</span>","0","Correct"
"","html-button-response","7","11730","0.0-1.0-0.6","y122temxxx","504.89999999990687","<span class=stimul>il</span>","0","Correct"
"","html-button-response","8","12182","0.0-1.0-0.7","y122temxxx","448.70000000082655","<span class=stimul>été</span>","0","Correct"
"","html-button-response","9","12684","0.0-1.0-0.8","y122temxxx","497.29999999908614","<span class=stimul>on</span>","0","Correct"
"","html-button-response","10","13177","0.0-1.0-0.9","y122temxxx","489.19999999998254","<span class=stimul>mur</span>","0","Correct"
"","html-button-response","11","13760","0.0-1.0-0.10","y122temxxx","579.4999999998254","<span class=stimul>ni</span>","0","Correct"
"","html-button-response","12","14240","0.0-1.0-0.11","y122temxxx","475.3999999993539","<span class=stimul>sur</span>","0","Correct"
"","html-button-response","13","14707","0.0-1.0-0.12","y122temxxx","463.10000000084983","<span class=stimul>qui</span>","0","Correct"
"","html-button-response","14","15137","0.0-1.0-0.13","y122temxxx","425.99999999947613","<span class=stimul>vélo</span>","0","Correct"
"","html-button-response","15","15603","0.0-1.0-0.14","y122temxxx","462.5000000014552","<span class=stimul>par</span>","0","Correct"
"","html-button-response","16","16029","0.0-1.0-0.15","y122temxxx","421.6999999989639","<span class=stimul>feu</span>","0","Correct"
"","html-button-response","17","16481","0.0-1.0-0.16","y122temxxx","448.1000000014319","<span class=stimul>ce</span>","0","Correct"
"","html-button-response","18","16944","0.0-1.0-0.17","y122temxxx","459.30000000225846","<span class=stimul>peur</span>","0","Correct"
"","html-button-response","19","17446","0.0-1.0-0.18","y122temxxx","497.6999999998952","<span class=stimul>ami</span>","0","Correct"
"","html-button-response","20","17913","0.0-1.0-0.19","y122temxxx","463.10000000084983","<span class=stimul>moto</span>","0","Correct"
"","html-button-response","21","18424","0.0-1.0-0.20","y122temxxx","507.3999999985972","<span class=stimul>peau</span>","0","Correct"
"","html-button-response","22","18899","0.0-1.0-0.21","y122temxxx","470.9000000002561","<span class=stimul>lune</span>","0","Correct"
"","html-button-response","23","19327","0.0-1.0-0.22","y122temxxx","424.2000000012922","<span class=stimul>gare</span>","0","Correct"
"","html-button-response","24","19812","0.0-1.0-0.23","y122temxxx","480.70000000006985","<span class=stimul>lire</span>","0","Correct"
"","html-button-response","25","20392","0.0-1.0-0.24","y122temxxx","577.000000001135","<span class=stimul>bon</span>","0","Correct"
"","html-button-response","26","20812","0.0-1.0-0.25","y122temxxx","415.0999999983469","<span class=stimul>mardi</span>","0","Correct"
"","html-button-response","27","21248","0.0-1.0-0.26","y122temxxx","432.6999999975669","<span class=stimul>col</span>","0","Correct"
"","html-button-response","28","21635","0.0-1.0-0.27","y122temxxx","383.4000000024389","<span class=stimul>avril</span>","0","Correct"
"","html-button-response","29","22025","0.0-1.0-0.28","y122temxxx","385.7000000025437","<span class=stimul>roi</span>","0","Correct"
"","html-button-response","30","22420","0.0-1.0-0.29","y122temxxx","391.39999999679276","<span class=stimul>faire</span>","0","Correct"
"","html-button-response","31","22814","0.0-1.0-0.30","y122temxxx","390.1999999980035","<span class=stimul>facile</span>","0","Correct"
"","html-button-response","32","23192","0.0-1.0-0.31","y122temxxx","374.10000000090804","<span class=stimul>cheval</span>","0","Correct"
"","html-button-response","33","23677","0.0-1.0-0.32","y122temxxx","481.1999999983527","<span class=stimul>vrai</span>","0","Correct"
"","html-button-response","34","24178","0.0-1.0-0.33","y122temxxx","497.1999999979744","<span class=stimul>ligne</span>","0","Correct"
"","html-button-response","35","24729","0.0-1.0-0.34","y122temxxx","546.5000000003783","<span class=stimul>porte</span>","0","Correct"
"","html-button-response","36","25173","0.0-1.0-0.35","y122temxxx","439.90000000121654","<span class=stimul>autre</span>","0","Correct"
"","html-button-response","37","25516","0.0-1.0-0.36","y122temxxx","339.4000000007509","<span class=stimul>loup</span>","0","Correct"
"","html-button-response","38","25829","0.0-1.0-0.37","y122temxxx","309.40000000191503","<span class=stimul>soir</span>","0","Correct"
"","html-button-response","39","26092","0.0-1.0-0.38","y122temxxx","258.79999999961","<span class=stimul>page</span>","0","Correct"
"","html-button-response","40","26418","0.0-1.0-0.39","y122temxxx","322.1000000012282","<span class=stimul>raisin</span>","0","Correct"
"","html-button-response","41","26789","0.0-1.0-0.40","y122temxxx","366.8999999972584","<span class=stimul>car</span>","0","Correct"
"","html-button-response","42","27093","0.0-1.0-0.41","y122temxxx","300.20000000149594","<span class=stimul>sucre</span>","0","Correct"
"","html-button-response","43","27366","0.0-1.0-0.42","y122temxxx","268.7000000005355","<span class=stimul>chat</span>","0","Correct"
"","html-button-response","44","27701","0.0-1.0-0.43","y122temxxx","331.9000000010419","<span class=stimul>matin</span>","0","Correct"
"","html-button-response","45","28235","0.0-1.0-0.44","y122temxxx","529.1999999972177","<span class=stimul>trésor</span>","0","Correct"
"","html-button-response","46","28736","0.0-1.0-0.45","y122temxxx","496.90000000191503","<span class=stimul>soixante</span>","0","Correct"
"","html-button-response","47","29120","0.0-1.0-0.46","y122temxxx","380.00000000101863","<span class=stimul>lundi</span>","0","Correct"
"","html-button-response","48","29376","0.0-1.0-0.47","y122temxxx","252.5999999998021","<span class=stimul>rose</span>","0","Correct"
"","html-button-response","49","29705","0.0-1.0-0.48","y122temxxx","324.49999999880674","<span class=stimul>visage</span>","0","Correct"
"","html-button-response","50","29999","0.0-1.0-0.49","y122temxxx","290.1000000019849","<span class=stimul>six</span>","0","Correct"
"","html-button-response","51","30403","0.0-1.0-0.50","y122temxxx","400.60000000084983","<span class=stimul>ciseau</span>","0","Correct"
"","html-button-response","52","30722","0.0-1.0-0.51","y122temxxx","314.699999998993","<span class=stimul>août</span>","0","Correct"
"","html-button-response","53","31017","0.0-1.0-0.52","y122temxxx","290.99999999743886","<span class=stimul>pays</span>","0","Correct"
"","html-button-response","54","31289","0.0-1.0-0.53","y122temxxx","268.10000000114087","<span class=stimul>balai</span>","0","Correct"
"","html-button-response","55","31543","0.0-1.0-0.54","y122temxxx","249.5999999991909","<span class=stimul>fille</span>","0","Correct"
"","html-button-response","56","31848","0.0-1.0-0.55","y122temxxx","301.69999999998254","<span class=stimul>sept</span>","0","Correct"
"","html-button-response","57","32104","0.0-1.0-0.56","y122temxxx","251.8999999992957","<span class=stimul>lourd</span>","0","Correct"
"","html-button-response","58","32440","0.0-1.0-0.57","y122temxxx","332.300000001851","<span class=stimul>femme</span>","0","Correct"
"","html-button-response","59","32761","0.0-1.0-0.58","y122temxxx","316.8000000005122","<span class=stimul>garage</span>","0","Correct"
"","html-button-response","60","33170","0.0-1.0-0.59","y122temxxx","404.8999999977241","<span class=stimul>hibou</span>","0","Correct"
"true","fullscreen","61","34174","0.0-2.0","y122temxxx","","","",""
"true","fullscreen","0","2793621","0.0-0.0","brn9l5bj8v","","","",""
"","html-button-response","1","2794658","0.0-1.0-0.0","brn9l5bj8v","1011.3999999999069","<span class=stimul>o</span>","0","Correct"
"","html-button-response","2","2795093","0.0-1.0-0.1","brn9l5bj8v","428.9000000000233","<span class=stimul>i</span>","0","Correct"
"","html-button-response","3","2795522","0.0-1.0-0.2","brn9l5bj8v","423.4000000000233","<span class=stimul>bi</span>","0","Correct"
"","html-button-response","4","2795977","0.0-1.0-0.3","brn9l5bj8v","450.10000000009313","<span class=stimul>ul</span>","0","Correct"
"","html-button-response","5","2796406","0.0-1.0-0.4","brn9l5bj8v","425.0999999999767","<span class=stimul>til</span>","0","Correct"
"","html-button-response","6","2797974","0.0-1.0-0.5","brn9l5bj8v","1562.9000000000233","<span class=stimul>ja</span>","0","Correct"
"","html-button-response","7","2798457","0.0-1.0-0.6","brn9l5bj8v","477.30000000004657","<span class=stimul>ol</span>","0","Correct"
"","html-button-response","8","2798894","0.0-1.0-0.7","brn9l5bj8v","432.80000000004657","<span class=stimul>ata</span>","0","Correct"
"","html-button-response","9","2799394","0.0-1.0-0.8","brn9l5bj8v","496.69999999995343","<span class=stimul>dik</span>","0","Correct"
"","html-button-response","10","2799839","0.0-1.0-0.9","brn9l5bj8v","441.4000000000233","<span class=stimul>nar</span>","0","Correct"
"","html-button-response","11","2800266","0.0-1.0-0.10","brn9l5bj8v","423.5999999999767","<span class=stimul>vaf</span>","0","Correct"
"","html-button-response","12","2800729","0.0-1.0-0.11","brn9l5bj8v","458.29999999993015","<span class=stimul>zou</span>","0","Correct"
"","html-button-response","13","2801262","0.0-1.0-0.12","brn9l5bj8v","529.7999999998137","<span class=stimul>dul</span>","0","Correct"
"","html-button-response","14","2801846","0.0-1.0-0.13","brn9l5bj8v","579.9999999998836","<span class=stimul>lévo</span>","0","Correct"
"","html-button-response","15","2802307","0.0-1.0-0.14","brn9l5bj8v","457.19999999995343","<span class=stimul>tur</span>","0","Correct"
"","html-button-response","16","2802817","0.0-1.0-0.15","brn9l5bj8v","506.19999999995343","<span class=stimul>veur</span>","0","Correct"
"","html-button-response","17","2803254","0.0-1.0-0.16","brn9l5bj8v","432.5999999999767","<span class=stimul>col</span>","0","Correct"
"","html-button-response","18","2803684","0.0-1.0-0.17","brn9l5bj8v","426.20000000006985","<span class=stimul>noil</span>","0","Correct"
"","html-button-response","19","2804420","0.0-1.0-0.18","brn9l5bj8v","732.5999999999767","<span class=stimul>opa</span>","0","Correct"
"","html-button-response","20","2805010","0.0-1.0-0.19","brn9l5bj8v","585.5","<span class=stimul>jal</span>","0","Correct"
"","html-button-response","21","2805471","0.0-1.0-0.20","brn9l5bj8v","457.5999999999767","<span class=stimul>neau</span>","0","Correct"
"","html-button-response","22","2806006","0.0-1.0-0.21","brn9l5bj8v","531.300000000163","<span class=stimul>timé</span>","0","Correct"
"","html-button-response","23","2806809","0.0-1.0-0.22","brn9l5bj8v","798.4000000000233","<span class=stimul>cal</span>","0","Correct"
"","html-button-response","24","2807246","0.0-1.0-0.23","brn9l5bj8v","433.60000000009313","<span class=stimul>tibe</span>","0","Correct"
"","html-button-response","25","2807795","0.0-1.0-0.24","brn9l5bj8v","544.9000000000233","<span class=stimul>lupe</span>","0","Correct"
"","html-button-response","26","2808371","0.0-1.0-0.25","brn9l5bj8v","572.2999999999302","<span class=stimul>pirde</span>","0","Correct"
"","html-button-response","27","2808887","0.0-1.0-0.26","brn9l5bj8v","512.6999999999534","<span class=stimul>gor</span>","0","Correct"
"","html-button-response","28","2809333","0.0-1.0-0.27","brn9l5bj8v","442.0999999999767","<span class=stimul>ablir</span>","0","Correct"
"","html-button-response","29","2809892","0.0-1.0-0.28","brn9l5bj8v","554.5","<span class=stimul>sar</span>","0","Correct"
"","html-button-response","30","2810339","0.0-1.0-0.29","brn9l5bj8v","443.79999999993015","<span class=stimul>vaipe</span>","0","Correct"
"","html-button-response","31","2810838","0.0-1.0-0.30","brn9l5bj8v","495.20000000006985","<span class=stimul>cifale</span>","0","Correct"
"","html-button-response","32","2811236","0.0-1.0-0.31","brn9l5bj8v","393.80000000004657","<span class=stimul>sapir</span>","0","Correct"
"","html-button-response","33","2811777","0.0-1.0-0.32","brn9l5bj8v","537.0999999999767","<span class=stimul>vro</span>","0","Correct"
"","html-button-response","34","2812213","0.0-1.0-0.33","brn9l5bj8v","432.29999999993015","<span class=stimul>rigne</span>","0","Correct"
"","html-button-response","35","2812691","0.0-1.0-0.34","brn9l5bj8v","473.79999999993015","<span class=stimul>rosan</span>","0","Correct"
"","html-button-response","36","2813354","0.0-1.0-0.35","brn9l5bj8v","659.1999999999534","<span class=stimul>aubre</span>","0","Correct"
"","html-button-response","37","2813968","0.0-1.0-0.36","brn9l5bj8v","610.0999999999767","<span class=stimul>talpe</span>","0","Correct"
"","html-button-response","38","2814599","0.0-1.0-0.37","brn9l5bj8v","626.5999999998603","<span class=stimul>gur</span>","0","Correct"
"","html-button-response","39","2815192","0.0-1.0-0.38","brn9l5bj8v","589.2999999999302","<span class=stimul>louré</span>","0","Correct"
"","html-button-response","40","2815726","0.0-1.0-0.39","brn9l5bj8v","530.4000000000233","<span class=stimul>ragife</span>","0","Correct"
"","html-button-response","41","2816447","0.0-1.0-0.40","brn9l5bj8v","717.0999999999767","<span class=stimul>noge</span>","0","Correct"
"","html-button-response","42","2816979","0.0-1.0-0.41","brn9l5bj8v","527.5","<span class=stimul>tope</span>","0","Correct"
"","html-button-response","43","2817497","0.0-1.0-0.42","brn9l5bj8v","514.5999999999767","<span class=stimul>uché</span>","0","Correct"
"","html-button-response","44","2818040","0.0-1.0-0.43","brn9l5bj8v","538.8000000000466","<span class=stimul>truson</span>","0","Correct"
"","html-button-response","45","2818586","0.0-1.0-0.44","brn9l5bj8v","541.7999999999302","<span class=stimul>ranli</span>","0","Correct"
"","html-button-response","46","2819303","0.0-1.0-0.45","brn9l5bj8v","713.9000000000233","<span class=stimul>tosir</span>","0","Correct"
"","html-button-response","47","2819951","0.0-1.0-0.46","brn9l5bj8v","643.5999999999767","<span class=stimul>poitade</span>","0","Correct"
"","html-button-response","48","2820566","0.0-1.0-0.47","brn9l5bj8v","611","<span class=stimul>ousir</span>","0","Correct"
"","html-button-response","49","2821204","0.0-1.0-0.48","brn9l5bj8v","634.3000000000466","<span class=stimul>bapre</span>","0","Correct"
"","html-button-response","50","2822061","0.0-1.0-0.49","brn9l5bj8v","853.5999999998603","<span class=stimul>gigne</span>","0","Correct"
"","html-button-response","51","2822749","0.0-1.0-0.50","brn9l5bj8v","684.1999999999534","<span class=stimul>gésin</span>","0","Correct"
"","html-button-response","52","2823349","0.0-1.0-0.51","brn9l5bj8v","595.6000000000931","<span class=stimul>kraulir</span>","0","Correct"
"","html-button-response","53","2823924","0.0-1.0-0.52","brn9l5bj8v","571.3000000000466","<span class=stimul>cibe</span>","0","Correct"
"","html-button-response","54","2824673","0.0-1.0-0.53","brn9l5bj8v","745.3000000000466","<span class=stimul>maipe</span>","0","Correct"
"","html-button-response","55","2825247","0.0-1.0-0.54","brn9l5bj8v","570.1000000002095","<span class=stimul>ligase</span>","0","Correct"
"","html-button-response","56","2825985","0.0-1.0-0.55","brn9l5bj8v","733.7999999999302","<span class=stimul>gofi</span>","0","Correct"
"","html-button-response","57","2826544","0.0-1.0-0.56","brn9l5bj8v","554.9999999998836","<span class=stimul>cipre</span>","0","Correct"
"","html-button-response","58","2827218","0.0-1.0-0.57","brn9l5bj8v","670.2000000000698","<span class=stimul>tasin</span>","0","Correct"
"","html-button-response","59","2827768","0.0-1.0-0.58","brn9l5bj8v","546.2999999999302","<span class=stimul>cipé</span>","0","Correct"
"","html-button-response","60","2828923","0.0-1.0-0.59","brn9l5bj8v","1150.800000000163","<span class=stimul>punse</span>","0","Correct"
"true","fullscreen","61","2829926","0.0-2.0","brn9l5bj8v","","","",""
"true","fullscreen","0","9298","0.0-0.0","bdc9rakdbo","","","",""
"","html-button-response","1","10382","0.0-1.0-0.0","bdc9rakdbo","1062.8000000006068","<span class=stimul>o</span>","0","Correct"
"","html-button-response","2","10884","0.0-1.0-0.1","bdc9rakdbo","496.79999999989377","<span class=stimul>i</span>","0","Correct"
"","html-button-response","3","11401","0.0-1.0-0.2","bdc9rakdbo","513.6000000002241","<span class=stimul>bi</span>","0","Correct"
"","html-button-response","4","12101","0.0-1.0-0.3","bdc9rakdbo","695.8000000004176","<span class=stimul>ul</span>","0","Correct"
"","html-button-response","5","12526","0.0-1.0-0.4","bdc9rakdbo","420.2999999997701","<span class=stimul>til</span>","0","Correct"
"","html-button-response","6","12977","0.0-1.0-0.5","bdc9rakdbo","446.89999999991414","<span class=stimul>ja</span>","0","Correct"
"","html-button-response","7","13394","0.0-1.0-0.6","bdc9rakdbo","412.4999999994543","<span class=stimul>ol</span>","0","Correct"
"","html-button-response","8","13818","0.0-1.0-0.7","bdc9rakdbo","420.00000000007276","<span class=stimul>ata</span>","0","Correct"
"","html-button-response","9","14300","0.0-1.0-0.8","bdc9rakdbo","478.0000000000655","<span class=stimul>dik</span>","0","Correct"
"","html-button-response","10","14814","0.0-1.0-0.9","bdc9rakdbo","510.10000000042055","<span class=stimul>nar</span>","0","Correct"
"","html-button-response","11","15302","0.0-1.0-0.10","bdc9rakdbo","484.1000000005806","<span class=stimul>vaf</span>","0","Correct"
"","html-button-response","12","15751","0.0-1.0-0.11","bdc9rakdbo","445.4999999998108","<span class=stimul>zou</span>","0","Correct"
"","html-button-response","13","16215","0.0-1.0-0.12","bdc9rakdbo","459.79999999963184","<span class=stimul>dul</span>","0","Correct"
"","html-button-response","14","16706","0.0-1.0-0.13","bdc9rakdbo","487.60000000038417","<span class=stimul>lévo</span>","0","Correct"
"","html-button-response","15","17180","0.0-1.0-0.14","bdc9rakdbo","469.8000000007596","<span class=stimul>tur</span>","0","Correct"
"","html-button-response","16","17648","0.0-1.0-0.15","bdc9rakdbo","463.6000000000422","<span class=stimul>veur</span>","0","Correct"
"","html-button-response","17","18135","0.0-1.0-0.16","bdc9rakdbo","483.4000000000742","<span class=stimul>col</span>","0","Correct"
"","html-button-response","18","18810","0.0-1.0-0.17","bdc9rakdbo","670.3999999999724","<span class=stimul>noil</span>","0","Correct"
"","html-button-response","19","19370","0.0-1.0-0.18","bdc9rakdbo","556.4000000003944","<span class=stimul>opa</span>","0","Correct"
"","html-button-response","20","20105","0.0-1.0-0.19","bdc9rakdbo","731.7000000002736","<span class=stimul>jal</span>","0","Correct"
"","html-button-response","21","21440","0.0-1.0-0.20","bdc9rakdbo","1330.800000000636","<span class=stimul>neau</span>","0","Correct"
"","html-button-response","22","22027","0.0-1.0-0.21","bdc9rakdbo","583.1000000007407","<span class=stimul>timé</span>","0","Correct"
"","html-button-response","23","22516","0.0-1.0-0.22","bdc9rakdbo","485.49999999977445","<span class=stimul>cal</span>","0","Correct"
"","html-button-response","24","23054","0.0-1.0-0.23","bdc9rakdbo","533.9999999996508","<span class=stimul>tibe</span>","0","Correct"
"","html-button-response","25","23747","0.0-1.0-0.24","bdc9rakdbo","688.600000000406","<span class=stimul>lupe</span>","0","Correct"
"","html-button-response","26","24300","0.0-1.0-0.25","bdc9rakdbo","549.8000000006869","<span class=stimul>pirde</span>","0","Correct"
"","html-button-response","27","24896","0.0-1.0-0.26","bdc9rakdbo","591.5999999997439","<span class=stimul>gor</span>","0","Correct"
"","html-button-response","28","25485","0.0-1.0-0.27","bdc9rakdbo","585.8999999991283","<span class=stimul>ablir</span>","0","Correct"
"","html-button-response","29","26072","0.0-1.0-0.28","bdc9rakdbo","582.9999999996289","<span class=stimul>sar</span>","0","Correct"
"","html-button-response","30","26949","0.0-1.0-0.29","bdc9rakdbo","872.9000000002998","<span class=stimul>vaipe</span>","0","Correct"
"","html-button-response","31","27537","0.0-1.0-0.30","bdc9rakdbo","584.2000000002372","<span class=stimul>cifale</span>","0","Correct"
"","html-button-response","32","28257","0.0-1.0-0.31","bdc9rakdbo","715.6999999997424","<span class=stimul>sapir</span>","0","Correct"
"","html-button-response","33","29145","0.0-1.0-0.32","bdc9rakdbo","884.2999999997119","<span class=stimul>vro</span>","0","Correct"
"","html-button-response","34","29717","0.0-1.0-0.33","bdc9rakdbo","567.7000000005137","<span class=stimul>rigne</span>","0","Correct"
"","html-button-response","35","31002","0.0-1.0-0.34","bdc9rakdbo","1281.2000000003536","<span class=stimul>rosan</span>","0","Correct"
"","html-button-response","36","31720","0.0-1.0-0.35","bdc9rakdbo","714.1000000001441","<span class=stimul>aubre</span>","0","Correct"
"","html-button-response","37","32406","0.0-1.0-0.36","bdc9rakdbo","681.4999999996871","<span class=stimul>talpe</span>","0","Correct"
"","html-button-response","38","33032","0.0-1.0-0.37","bdc9rakdbo","622.8999999993903","<span class=stimul>gur</span>","0","Correct"
"","html-button-response","39","33639","0.0-1.0-0.38","bdc9rakdbo","602.4999999999636","<span class=stimul>louré</span>","0","Correct"
"","html-button-response","40","35683","0.0-1.0-0.39","bdc9rakdbo","2040.5000000000655","<span class=stimul>ragife</span>","1","Incorrect"
"","html-button-response","41","36239","0.0-1.0-0.40","bdc9rakdbo","552.0999999998821","<span class=stimul>noge</span>","0","Correct"
"","html-button-response","42","36818","0.0-1.0-0.41","bdc9rakdbo","574.5999999999185","<span class=stimul>tope</span>","0","Correct"
"","html-button-response","43","37314","0.0-1.0-0.42","bdc9rakdbo","492.40000000008877","<span class=stimul>uché</span>","0","Correct"
"","html-button-response","44","37927","0.0-1.0-0.43","bdc9rakdbo","609.0000000003783","<span class=stimul>truson</span>","0","Correct"
"","html-button-response","45","38564","0.0-1.0-0.44","bdc9rakdbo","632.499999999709","<span class=stimul>ranli</span>","0","Correct"
"","html-button-response","46","39202","0.0-1.0-0.45","bdc9rakdbo","634.3999999999141","<span class=stimul>tosir</span>","0","Correct"
"","html-button-response","47","39924","0.0-1.0-0.46","bdc9rakdbo","718.2999999995445","<span class=stimul>poitade</span>","0","Correct"
"","html-button-response","48","40616","0.0-1.0-0.47","bdc9rakdbo","687.8999999998996","<span class=stimul>ousir</span>","0","Correct"
"","html-button-response","49","41243","0.0-1.0-0.48","bdc9rakdbo","622.8000000000975","<span class=stimul>bapre</span>","0","Correct"
"","html-button-response","50","42057","0.0-1.0-0.49","bdc9rakdbo","809.7999999999956","<span class=stimul>gigne</span>","0","Correct"
"","html-button-response","51","43481","0.0-1.0-0.50","bdc9rakdbo","1420.799999999872","<span class=stimul>gésin</span>","0","Correct"
"","html-button-response","52","44655","0.0-1.0-0.51","bdc9rakdbo","1170.29999999977","<span class=stimul>kraulir</span>","0","Correct"
"","html-button-response","53","44878","0.0-1.0-0.52","bdc9rakdbo","218.49999999994907","<span class=stimul>cibe</span>","0","Correct"
"","html-button-response","54","45660","0.0-1.0-0.53","bdc9rakdbo","778.0999999995402","<span class=stimul>maipe</span>","0","Correct"
"","html-button-response","55","46239","0.0-1.0-0.54","bdc9rakdbo","575.3999999997177","<span class=stimul>ligase</span>","0","Correct"
"","html-button-response","56","46907","0.0-1.0-0.55","bdc9rakdbo","663.7000000000626","<span class=stimul>gofi</span>","0","Correct"
"","html-button-response","57","47670","0.0-1.0-0.56","bdc9rakdbo","759.5000000001164","<span class=stimul>cipre</span>","0","Correct"
"","html-button-response","58","48510","0.0-1.0-0.57","bdc9rakdbo","835.399999999936","<span class=stimul>tasin</span>","0","Correct"
"","html-button-response","59","49023","0.0-1.0-0.58","bdc9rakdbo","509.5000000001164","<span class=stimul>cipé</span>","0","Correct"
"","html-button-response","60","49682","0.0-1.0-0.59","bdc9rakdbo","655.4000000005544","<span class=stimul>punse</span>","0","Correct"
"true","fullscreen","61","50686","0.0-2.0","bdc9rakdbo","","","",""
"true","fullscreen","0","4728","0.0-0.0","m7plcx6kgu","","","",""
"","html-button-response","1","8376","0.0-1.0-0.0","m7plcx6kgu","3624.200000000201","<span class=stimul>o</span>","0","Correct"
"","html-button-response","2","8830","0.0-1.0-0.1","m7plcx6kgu","447.0000000001164","<span class=stimul>i</span>","0","Correct"
"","html-button-response","3","10080","0.0-1.0-0.2","m7plcx6kgu","1245.600000000195","<span class=stimul>bi</span>","0","Correct"
"","html-button-response","4","10537","0.0-1.0-0.3","m7plcx6kgu","452.5000000003274","<span class=stimul>ul</span>","0","Correct"
"","html-button-response","5","12263","0.0-1.0-0.4","m7plcx6kgu","1721.1999999999534","<span class=stimul>til</span>","0","Correct"
"","html-button-response","6","14070","0.0-1.0-0.5","m7plcx6kgu","1803.1000000000859","<span class=stimul>ja</span>","0","Correct"
"","html-button-response","7","15132","0.0-1.0-0.6","m7plcx6kgu","1058.0999999992855","<span class=stimul>ol</span>","0","Correct"
"","html-button-response","8","15893","0.0-1.0-0.7","m7plcx6kgu","757.499999999709","<span class=stimul>ata</span>","0","Correct"
"","html-button-response","9","16546","0.0-1.0-0.8","m7plcx6kgu","648.6999999997352","<span class=stimul>dik</span>","0","Correct"
"","html-button-response","10","17030","0.0-1.0-0.9","m7plcx6kgu","480.40000000037253","<span class=stimul>nar</span>","0","Correct"
"","html-button-response","11","17545","0.0-1.0-0.10","m7plcx6kgu","511.3000000001193","<span class=stimul>vaf</span>","0","Correct"
"","html-button-response","12","18059","0.0-1.0-0.11","m7plcx6kgu","509.69999999961146","<span class=stimul>zou</span>","0","Correct"
"","html-button-response","13","18618","0.0-1.0-0.12","m7plcx6kgu","554.6999999996842","<span class=stimul>dul</span>","0","Correct"
"","html-button-response","14","19935","0.0-1.0-0.13","m7plcx6kgu","1313.7000000006083","<span class=stimul>lévo</span>","0","Correct"
"","html-button-response","15","21349","0.0-1.0-0.14","m7plcx6kgu","1409.0000000005602","<span class=stimul>tur</span>","0","Correct"
"","html-button-response","16","22116","0.0-1.0-0.15","m7plcx6kgu","763.6000000002241","<span class=stimul>veur</span>","0","Correct"
"","html-button-response","17","23131","0.0-1.0-0.16","m7plcx6kgu","1011.199999999917","<span class=stimul>col</span>","0","Correct"
"","html-button-response","18","24620","0.0-1.0-0.17","m7plcx6kgu","1484.9999999996726","<span class=stimul>noil</span>","0","Correct"
"","html-button-response","19","25397","0.0-1.0-0.18","m7plcx6kgu","773.1999999996333","<span class=stimul>opa</span>","0","Correct"
"","html-button-response","20","26150","0.0-1.0-0.19","m7plcx6kgu","749.0999999999985","<span class=stimul>jal</span>","0","Correct"
"","html-button-response","21","28155","0.0-1.0-0.20","m7plcx6kgu","2000.3999999998996","<span class=stimul>neau</span>","0","Correct"
"","html-button-response","22","29513","0.0-1.0-0.21","m7plcx6kgu","1355.199999999968","<span class=stimul>timé</span>","0","Correct"
"","html-button-response","23","30330","0.0-1.0-0.22","m7plcx6kgu","813.4000000000015","<span class=stimul>cal</span>","0","Correct"
"","html-button-response","24","30881","0.0-1.0-0.23","m7plcx6kgu","547.1999999999753","<span class=stimul>tibe</span>","0","Correct"
"","html-button-response","25","31501","0.0-1.0-0.24","m7plcx6kgu","616.1000000001877","<span class=stimul>lupe</span>","0","Correct"
"","html-button-response","26","32213","0.0-1.0-0.25","m7plcx6kgu","708.5000000006403","<span class=stimul>pirde</span>","0","Correct"
"","html-button-response","27","32882","0.0-1.0-0.26","m7plcx6kgu","664.9999999999636","<span class=stimul>gor</span>","0","Correct"
"","html-button-response","28","33533","0.0-1.0-0.27","m7plcx6kgu","645.3999999994267","<span class=stimul>ablir</span>","0","Correct"
"","html-button-response","29","34184","0.0-1.0-0.28","m7plcx6kgu","646.3999999996304","<span class=stimul>sar</span>","0","Correct"
"","html-button-response","30","35493","0.0-1.0-0.29","m7plcx6kgu","1305.4000000001906","<span class=stimul>vaipe</span>","1","Incorrect"
"","html-button-response","31","36144","0.0-1.0-0.30","m7plcx6kgu","647.5000000000364","<span class=stimul>cifale</span>","0","Correct"
"","html-button-response","32","37019","0.0-1.0-0.31","m7plcx6kgu","870.8000000005995","<span class=stimul>sapir</span>","0","Correct"
"","html-button-response","33","38083","0.0-1.0-0.32","m7plcx6kgu","1060.099999999693","<span class=stimul>vro</span>","0","Correct"
"","html-button-response","34","38710","0.0-1.0-0.33","m7plcx6kgu","623.5999999998967","<span class=stimul>rigne</span>","0","Correct"
"","html-button-response","35","40110","0.0-1.0-0.34","m7plcx6kgu","1396.9999999999345","<span class=stimul>rosan</span>","0","Correct"
"","html-button-response","36","40935","0.0-1.0-0.35","m7plcx6kgu","821.3000000005195","<span class=stimul>aubre</span>","0","Correct"
"","html-button-response","37","41864","0.0-1.0-0.36","m7plcx6kgu","925.0999999994747","<span class=stimul>talpe</span>","0","Correct"
"","html-button-response","38","43342","0.0-1.0-0.37","m7plcx6kgu","1474.2999999998574","<span class=stimul>gur</span>","0","Correct"
"","html-button-response","39","43973","0.0-1.0-0.38","m7plcx6kgu","626.8000000000029","<span class=stimul>louré</span>","0","Correct"
"","html-button-response","40","45696","0.0-1.0-0.39","m7plcx6kgu","1718.8999999998487","<span class=stimul>ragife</span>","0","Correct"
"","html-button-response","41","46299","0.0-1.0-0.40","m7plcx6kgu","599.1999999996551","<span class=stimul>noge</span>","0","Correct"
"","html-button-response","42","46823","0.0-1.0-0.41","m7plcx6kgu","520.4999999996289","<span class=stimul>tope</span>","0","Correct"
"","html-button-response","43","47519","0.0-1.0-0.42","m7plcx6kgu","691.4999999999054","<span class=stimul>uché</span>","0","Correct"
"","html-button-response","44","48293","0.0-1.0-0.43","m7plcx6kgu","770.4000000003361","<span class=stimul>truson</span>","0","Correct"
"","html-button-response","45","49108","0.0-1.0-0.44","m7plcx6kgu","810.5999999997948","<span class=stimul>ranli</span>","0","Correct"
"","html-button-response","46","51870","0.0-1.0-0.45","m7plcx6kgu","2758.2000000002154","<span class=stimul>tosir</span>","1","Incorrect"
"","html-button-response","47","52540","0.0-1.0-0.46","m7plcx6kgu","666.0999999994601","<span class=stimul>poitade</span>","0","Correct"
"","html-button-response","48","54134","0.0-1.0-0.47","m7plcx6kgu","1590.5999999995402","<span class=stimul>ousir</span>","1","Incorrect"
"","html-button-response","49","54919","0.0-1.0-0.48","m7plcx6kgu","781.2000000003536","<span class=stimul>bapre</span>","0","Correct"
"","html-button-response","50","57131","0.0-1.0-0.49","m7plcx6kgu","2209.200000000237","<span class=stimul>gigne</span>","1","Incorrect"
"","html-button-response","51","58097","0.0-1.0-0.50","m7plcx6kgu","961.9000000002416","<span class=stimul>gésin</span>","0","Correct"
"","html-button-response","52","60340","0.0-1.0-0.51","m7plcx6kgu","2239.8000000002867","<span class=stimul>kraulir</span>","1","Incorrect"
"","html-button-response","53","61037","0.0-1.0-0.52","m7plcx6kgu","693.199999999706","<span class=stimul>cibe</span>","0","Correct"
"","html-button-response","54","61722","0.0-1.0-0.53","m7plcx6kgu","681.1999999999898","<span class=stimul>maipe</span>","0","Correct"
"","html-button-response","55","62482","0.0-1.0-0.54","m7plcx6kgu","755.7999999999083","<span class=stimul>ligase</span>","0","Correct"
"","html-button-response","56","63830","0.0-1.0-0.55","m7plcx6kgu","1344.600000000355","<span class=stimul>gofi</span>","0","Correct"
"","html-button-response","57","64427","0.0-1.0-0.56","m7plcx6kgu","592.200000000048","<span class=stimul>cipre</span>","0","Correct"
"","html-button-response","58","64729","0.0-1.0-0.57","m7plcx6kgu","","","",""
"true","fullscreen","0","13756","0.0-0.0","6sfupmgunx","","","",""
"","html-button-response","1","15812","0.0-1.0-0.0","6sfupmgunx","2040.899999999965","<span class=stimul>o</span>","0","Correct"
"","html-button-response","2","16213","0.0-1.0-0.1","6sfupmgunx","397.5000000009459","<span class=stimul>i</span>","0","Correct"
"","html-button-response","3","16587","0.0-1.0-0.2","6sfupmgunx","369.1999999991822","<span class=stimul>bi</span>","0","Correct"
"","html-button-response","4","17049","0.0-1.0-0.3","6sfupmgunx","457.89999999942665","<span class=stimul>ul</span>","0","Correct"
"","html-button-response","5","17474","0.0-1.0-0.4","6sfupmgunx","421.4000000010856","<span class=stimul>til</span>","0","Correct"
"","html-button-response","6","18005","0.0-1.0-0.5","6sfupmgunx","527.0999999993364","<span class=stimul>ja</span>","0","Correct"
"","html-button-response","7","18618","0.0-1.0-0.6","6sfupmgunx","608.6000000013883","<span class=stimul>ol</span>","0","Correct"
"","html-button-response","8","19126","0.0-1.0-0.7","6sfupmgunx","503.80000000041036","<span class=stimul>ata</span>","0","Correct"
"","html-button-response","9","19641","0.0-1.0-0.8","6sfupmgunx","510.50000000032014","<span class=stimul>dik</span>","0","Correct"
"","html-button-response","10","20107","0.0-1.0-0.9","6sfupmgunx","462.1999999999389","<span class=stimul>nar</span>","0","Correct"
"","html-button-response","11","20665","0.0-1.0-0.10","6sfupmgunx","553.7999999996828","<span class=stimul>vaf</span>","0","Correct"
"","html-button-response","12","21263","0.0-1.0-0.11","6sfupmgunx","595.1999999997497","<span class=stimul>zou</span>","0","Correct"
"","html-button-response","13","21795","0.0-1.0-0.12","6sfupmgunx","528.8000000000466","<span class=stimul>dul</span>","0","Correct"
"","html-button-response","14","22376","0.0-1.0-0.13","6sfupmgunx","576.3999999999214","<span class=stimul>lévo</span>","0","Correct"
"","html-button-response","15","22964","0.0-1.0-0.14","6sfupmgunx","585.2000000013504","<span class=stimul>tur</span>","0","Correct"
"","html-button-response","16","24719","0.0-1.0-0.15","6sfupmgunx","1750.899999999092","<span class=stimul>veur</span>","0","Correct"
"","html-button-response","17","25237","0.0-1.0-0.16","6sfupmgunx","513.8999999999214","<span class=stimul>col</span>","0","Correct"
"","html-button-response","18","25662","0.0-1.0-0.17","6sfupmgunx","420.8999999991647","<span class=stimul>noil</span>","0","Correct"
"","html-button-response","19","26949","0.0-1.0-0.18","6sfupmgunx","1283.4000000002561","<span class=stimul>opa</span>","0","Correct"
"","html-button-response","20","27595","0.0-1.0-0.19","6sfupmgunx","642.2999999995227","<span class=stimul>jal</span>","0","Correct"
"","html-button-response","21","28336","0.0-1.0-0.20","6sfupmgunx","736.800000000585","<span class=stimul>neau</span>","0","Correct"
"","html-button-response","22","28831","0.0-1.0-0.21","6sfupmgunx","490.90000000069267","<span class=stimul>timé</span>","0","Correct"
"","html-button-response","23","29428","0.0-1.0-0.22","6sfupmgunx","592.3999999995431","<span class=stimul>cal</span>","0","Correct"
"","html-button-response","24","30849","0.0-1.0-0.23","6sfupmgunx","1417.299999999159","<span class=stimul>tibe</span>","1","Incorrect"
"","html-button-response","25","31417","0.0-1.0-0.24","6sfupmgunx","564.8000000001048","<span class=stimul>lupe</span>","0","Correct"
"","html-button-response","26","31950","0.0-1.0-0.25","6sfupmgunx","529.3000000001484","<span class=stimul>pirde</span>","0","Correct"
"","html-button-response","27","32719","0.0-1.0-0.26","6sfupmgunx","765.1000000005297","<span class=stimul>gor</span>","0","Correct"
"","html-button-response","28","33975","0.0-1.0-0.27","6sfupmgunx","1251.299999999901","<span class=stimul>ablir</span>","0","Correct"
"","html-button-response","29","34714","0.0-1.0-0.28","6sfupmgunx","735.8000000003813","<span class=stimul>sar</span>","0","Correct"
"","html-button-response","30","35462","0.0-1.0-0.29","6sfupmgunx","744.1999999991822","<span class=stimul>vaipe</span>","0","Correct"
"","html-button-response","31","36303","0.0-1.0-0.30","6sfupmgunx","836.9000000002416","<span class=stimul>cifale</span>","0","Correct"
"","html-button-response","32","37006","0.0-1.0-0.31","6sfupmgunx","698.9000000012311","<span class=stimul>sapir</span>","0","Correct"
"","html-button-response","33","37698","0.0-1.0-0.32","6sfupmgunx","688.2000000005064","<span class=stimul>vro</span>","0","Correct"
"","html-button-response","34","38387","0.0-1.0-0.33","6sfupmgunx","685.5999999988853","<span class=stimul>rigne</span>","0","Correct"
"","html-button-response","35","39463","0.0-1.0-0.34","6sfupmgunx","1072.3999999991065","<span class=stimul>rosan</span>","0","Correct"
"","html-button-response","36","40828","0.0-1.0-0.35","6sfupmgunx","1360.500000000684","<span class=stimul>aubre</span>","0","Correct"
"","html-button-response","37","41384","0.0-1.0-0.36","6sfupmgunx","552.5999999990745","<span class=stimul>talpe</span>","0","Correct"
"","html-button-response","38","42071","0.0-1.0-0.37","6sfupmgunx","682.4999999989814","<span class=stimul>gur</span>","0","Correct"
"","html-button-response","39","42774","0.0-1.0-0.38","6sfupmgunx","698.8000000001193","<span class=stimul>louré</span>","0","Correct"
"","html-button-response","40","43819","0.0-1.0-0.39","6sfupmgunx","1040.9999999992579","<span class=stimul>ragife</span>","0","Correct"
"","html-button-response","41","45142","0.0-1.0-0.40","6sfupmgunx","1319.6000000007189","<span class=stimul>noge</span>","0","Correct"
"","html-button-response","42","45761","0.0-1.0-0.41","6sfupmgunx","615.1000000008935","<span class=stimul>tope</span>","0","Correct"
"","html-button-response","43","46480","0.0-1.0-0.42","6sfupmgunx","714.8999999990338","<span class=stimul>uché</span>","0","Correct"
"","html-button-response","44","47764","0.0-1.0-0.43","6sfupmgunx","1279.8000000002503","<span class=stimul>truson</span>","1","Incorrect"
"","html-button-response","45","48320","0.0-1.0-0.44","6sfupmgunx","551.3000000009924","<span class=stimul>ranli</span>","0","Correct"
"","html-button-response","46","48965","0.0-1.0-0.45","6sfupmgunx","640.9000000003289","<span class=stimul>tosir</span>","0","Correct"
"","html-button-response","47","50291","0.0-1.0-0.46","6sfupmgunx","1322.7000000006228","<span class=stimul>poitade</span>","0","Correct"
"","html-button-response","48","51326","0.0-1.0-0.47","6sfupmgunx","1030.800000000454","<span class=stimul>ousir</span>","0","Correct"
"","html-button-response","49","52276","0.0-1.0-0.48","6sfupmgunx","945.8999999988009","<span class=stimul>bapre</span>","0","Correct"
"","html-button-response","50","56161","0.0-1.0-0.49","6sfupmgunx","3880.800000000818","<span class=stimul>gigne</span>","0","Correct"
"","html-button-response","51","57134","0.0-1.0-0.50","6sfupmgunx","968.4999999990396","<span class=stimul>gésin</span>","0","Correct"
"","html-button-response","52","57820","0.0-1.0-0.51","6sfupmgunx","681.9999999988795","<span class=stimul>kraulir</span>","0","Correct"
"","html-button-response","53","59061","0.0-1.0-0.52","6sfupmgunx","1236.9000000016968","<span class=stimul>cibe</span>","0","Correct"
"","html-button-response","54","60359","0.0-1.0-0.53","6sfupmgunx","1293.8000000012835","<span class=stimul>maipe</span>","0","Correct"
"","html-button-response","55","61084","0.0-1.0-0.54","6sfupmgunx","721.6999999982363","<span class=stimul>ligase</span>","0","Correct"
"","html-button-response","56","62955","0.0-1.0-0.55","6sfupmgunx","1866.20000000039","<span class=stimul>gofi</span>","0","Correct"
"","html-button-response","57","63928","0.0-1.0-0.56","6sfupmgunx","969.8000000007596","<span class=stimul>cipre</span>","0","Correct"
"","html-button-response","58","64736","0.0-1.0-0.57","6sfupmgunx","803.4999999999854","<span class=stimul>tasin</span>","0","Correct"
"","html-button-response","59","65398","0.0-1.0-0.58","6sfupmgunx","658.3000000009633","<span class=stimul>cipé</span>","0","Correct"
"","html-button-response","60","66452","0.0-1.0-0.59","6sfupmgunx","1049.6000000002823","<span class=stimul>punse</span>","0","Correct"
"true","fullscreen","61","67455","0.0-2.0","6sfupmgunx","","","",""
"true","fullscreen","0","3294","0.0-0.0","lynauwdgs4","","","",""
"","html-button-response","1","13729","0.0-1.0-0.0","lynauwdgs4","10411.50000000016","<span class=stimul>o</span>","0","Correct"
"","html-button-response","2","14202","0.0-1.0-0.1","lynauwdgs4","468.3999999997468","<span class=stimul>i</span>","0","Correct"
"","html-button-response","3","14594","0.0-1.0-0.2","lynauwdgs4","388.10000000012224","<span class=stimul>bi</span>","0","Correct"
"","html-button-response","4","15180","0.0-1.0-0.3","lynauwdgs4","582.5000000004366","<span class=stimul>ul</span>","0","Correct"
"","html-button-response","5","15654","0.0-1.0-0.4","lynauwdgs4","470.10000000045693","<span class=stimul>til</span>","0","Correct"
"","html-button-response","6","17003","0.0-1.0-0.5","lynauwdgs4","1345.6999999998516","<span class=stimul>ja</span>","0","Correct"
"","html-button-response","7","17424","0.0-1.0-0.6","lynauwdgs4","417.50000000138243","<span class=stimul>ol</span>","0","Correct"
"","html-button-response","8","17831","0.0-1.0-0.7","lynauwdgs4","403.599999999642","<span class=stimul>ata</span>","0","Correct"
"","html-button-response","9","18893","0.0-1.0-0.8","lynauwdgs4","1057.8999999997905","<span class=stimul>dik</span>","0","Correct"
"","html-button-response","10","19398","0.0-1.0-0.9","lynauwdgs4","502.1000000015192","<span class=stimul>nar</span>","0","Correct"
"","html-button-response","11","20458","0.0-1.0-0.10","lynauwdgs4","1056.0999999997875","<span class=stimul>vaf</span>","0","Correct"
"","html-button-response","12","21574","0.0-1.0-0.11","lynauwdgs4","1112.200000001394","<span class=stimul>zou</span>","0","Correct"
"","html-button-response","13","21981","0.0-1.0-0.12","lynauwdgs4","403.80000000004657","<span class=stimul>dul</span>","0","Correct"
"","html-button-response","14","23652","0.0-1.0-0.13","lynauwdgs4","1667.699999999968","<span class=stimul>lévo</span>","0","Correct"
"","html-button-response","15","24164","0.0-1.0-0.14","lynauwdgs4","507.59999999900174","<span class=stimul>tur</span>","0","Correct"
"","html-button-response","16","24653","0.0-1.0-0.15","lynauwdgs4","485.6999999992695","<span class=stimul>veur</span>","0","Correct"
"","html-button-response","17","25126","0.0-1.0-0.16","lynauwdgs4","469.9000000000524","<span class=stimul>col</span>","0","Correct"
"","html-button-response","18","25802","0.0-1.0-0.17","lynauwdgs4","672.8000000002794","<span class=stimul>noil</span>","0","Correct"
"","html-button-response","19","27473","0.0-1.0-0.18","lynauwdgs4","1667.4999999995634","<span class=stimul>opa</span>","0","Correct"
"","html-button-response","20","28120","0.0-1.0-0.19","lynauwdgs4","642.7999999996246","<span class=stimul>jal</span>","0","Correct"
"","html-button-response","21","28665","0.0-1.0-0.20","lynauwdgs4","542.4000000002707","<span class=stimul>neau</span>","0","Correct"
"","html-button-response","22","29286","0.0-1.0-0.21","lynauwdgs4","617.1000000013009","<span class=stimul>timé</span>","0","Correct"
"","html-button-response","23","30884","0.0-1.0-0.22","lynauwdgs4","1594.9999999993452","<span class=stimul>cal</span>","0","Correct"
"","html-button-response","24","31486","0.0-1.0-0.23","lynauwdgs4","598.0999999992491","<span class=stimul>tibe</span>","0","Correct"
"","html-button-response","25","32091","0.0-1.0-0.24","lynauwdgs4","601.4000000013766","<span class=stimul>lupe</span>","0","Correct"
"","html-button-response","26","32825","0.0-1.0-0.25","lynauwdgs4","730.2999999992608","<span class=stimul>pirde</span>","0","Correct"
"","html-button-response","27","33377","0.0-1.0-0.26","lynauwdgs4","549.1999999994732","<span class=stimul>gor</span>","0","Correct"
"","html-button-response","28","34193","0.0-1.0-0.27","lynauwdgs4","812.6000000011118","<span class=stimul>ablir</span>","0","Correct"
"","html-button-response","29","34659","0.0-1.0-0.28","lynauwdgs4","462.8999999986263","<span class=stimul>sar</span>","0","Correct"
"","html-button-response","30","35301","0.0-1.0-0.29","lynauwdgs4","638.2999999987078","<span class=stimul>vaipe</span>","0","Correct"
"","html-button-response","31","36000","0.0-1.0-0.30","lynauwdgs4","695.7000000002154","<span class=stimul>cifale</span>","0","Correct"
"","html-button-response","32","36563","0.0-1.0-0.31","lynauwdgs4","559.2000000015105","<span class=stimul>sapir</span>","0","Correct"
"","html-button-response","33","37052","0.0-1.0-0.32","lynauwdgs4","485.89999999967404","<span class=stimul>vro</span>","0","Correct"
"","html-button-response","34","38061","0.0-1.0-0.33","lynauwdgs4","1005.1999999996042","<span class=stimul>rigne</span>","0","Correct"
"","html-button-response","35","39290","0.0-1.0-0.34","lynauwdgs4","1225.6999999990512","<span class=stimul>rosan</span>","0","Correct"
"","html-button-response","36","39852","0.0-1.0-0.35","lynauwdgs4","558.5000000010041","<span class=stimul>aubre</span>","0","Correct"
"","html-button-response","37","40413","0.0-1.0-0.36","lynauwdgs4","557.8000000004977","<span class=stimul>talpe</span>","0","Correct"
"","html-button-response","38","41002","0.0-1.0-0.37","lynauwdgs4","584.8000000005413","<span class=stimul>gur</span>","0","Correct"
"","html-button-response","39","41595","0.0-1.0-0.38","lynauwdgs4","589.5000000000437","<span class=stimul>louré</span>","0","Correct"
"","html-button-response","40","44196","0.0-1.0-0.39","lynauwdgs4","2597.800000001371","<span class=stimul>ragife</span>","0","Correct"
"","html-button-response","41","44749","0.0-1.0-0.40","lynauwdgs4","548.8999999997759","<span class=stimul>noge</span>","0","Correct"
"","html-button-response","42","45236","0.0-1.0-0.41","lynauwdgs4","483.5000000002765","<span class=stimul>tope</span>","0","Correct"
"","html-button-response","43","45817","0.0-1.0-0.42","lynauwdgs4","576.8000000007305","<span class=stimul>uché</span>","0","Correct"
"","html-button-response","44","46385","0.0-1.0-0.43","lynauwdgs4","565.2000000009139","<span class=stimul>truson</span>","0","Correct"
"","html-button-response","45","48181","0.0-1.0-0.44","lynauwdgs4","1792.5000000013824","<span class=stimul>ranli</span>","0","Correct"
"","html-button-response","46","48694","0.0-1.0-0.45","lynauwdgs4","509.79999999981374","<span class=stimul>tosir</span>","0","Correct"
"","html-button-response","47","49322","0.0-1.0-0.46","lynauwdgs4","623.9999999997963","<span class=stimul>poitade</span>","0","Correct"
"","html-button-response","48","50161","0.0-1.0-0.47","lynauwdgs4","835.3000000006432","<span class=stimul>ousir</span>","0","Correct"
"","html-button-response","49","50820","0.0-1.0-0.48","lynauwdgs4","655.799999998635","<span class=stimul>bapre</span>","0","Correct"
"","html-button-response","50","54835","0.0-1.0-0.49","lynauwdgs4","4011.500000000524","<span class=stimul>gigne</span>","0","Correct"
"","html-button-response","51","55657","0.0-1.0-0.50","lynauwdgs4","817.799999998897","<span class=stimul>gésin</span>","0","Correct"
"","html-button-response","52","56319","0.0-1.0-0.51","lynauwdgs4","658.6000000006607","<span class=stimul>kraulir</span>","0","Correct"
"","html-button-response","53","57027","0.0-1.0-0.52","lynauwdgs4","704.4000000005326","<span class=stimul>cibe</span>","0","Correct"
"","html-button-response","54","57629","0.0-1.0-0.53","lynauwdgs4","598.9000000008673","<span class=stimul>maipe</span>","0","Correct"
"","html-button-response","55","59304","0.0-1.0-0.54","lynauwdgs4","1671.199999998862","<span class=stimul>ligase</span>","0","Correct"
"","html-button-response","56","59939","0.0-1.0-0.55","lynauwdgs4","631.6999999999098","<span class=stimul>gofi</span>","0","Correct"
"","html-button-response","57","60509","0.0-1.0-0.56","lynauwdgs4","566.3000000004104","<span class=stimul>cipre</span>","0","Correct"
"","html-button-response","58","61374","0.0-1.0-0.57","lynauwdgs4","862.2000000013941","<span class=stimul>tasin</span>","0","Correct"
"","html-button-response","59","62151","0.0-1.0-0.58","lynauwdgs4","772.899999999936","<span class=stimul>cipé</span>","0","Correct"
"","html-button-response","60","63297","0.0-1.0-0.59","lynauwdgs4","","","",""
"true","fullscreen","0","8180","0.0-0.0","fgvgxn7qyg","","","",""
"","html-button-response","1","8959","0.0-1.0-0.0","fgvgxn7qyg","755.6000000004133","<span class=stimul>o</span>","0","Correct"
"","html-button-response","2","9328","0.0-1.0-0.1","fgvgxn7qyg","364.6000000007916","<span class=stimul>i</span>","0","Correct"
"","html-button-response","3","9713","0.0-1.0-0.2","fgvgxn7qyg","380.7999999989988","<span class=stimul>bi</span>","0","Correct"
"","html-button-response","4","10043","0.0-1.0-0.3","fgvgxn7qyg","326.5000000028522","<span class=stimul>ul</span>","0","Correct"
"","html-button-response","5","10427","0.0-1.0-0.4","fgvgxn7qyg","378.7000000011176","<span class=stimul>til</span>","0","Correct"
"","html-button-response","6","10805","0.0-1.0-0.5","fgvgxn7qyg","374.5000000017171","<span class=stimul>ja</span>","0","Correct"
"","html-button-response","7","11300","0.0-1.0-0.6","fgvgxn7qyg","491.0999999992782","<span class=stimul>ol</span>","0","Correct"
"","html-button-response","8","11702","0.0-1.0-0.7","fgvgxn7qyg","397.7999999988242","<span class=stimul>ata</span>","0","Correct"
"","html-button-response","9","12194","0.0-1.0-0.8","fgvgxn7qyg","487.9000000000815","<span class=stimul>dik</span>","0","Correct"
"","html-button-response","10","12620","0.0-1.0-0.9","fgvgxn7qyg","421.50000000037835","<span class=stimul>nar</span>","0","Correct"
"","html-button-response","11","13097","0.0-1.0-0.10","fgvgxn7qyg","473.2999999978347","<span class=stimul>vaf</span>","0","Correct"
"","html-button-response","12","13488","0.0-1.0-0.11","fgvgxn7qyg","386.8000000002212","<span class=stimul>zou</span>","0","Correct"
"","html-button-response","13","13965","0.0-1.0-0.12","fgvgxn7qyg","472.90000000066357","<span class=stimul>dul</span>","0","Correct"
"","html-button-response","14","14471","0.0-1.0-0.13","fgvgxn7qyg","502.00000000040745","<span class=stimul>lévo</span>","0","Correct"
"","html-button-response","15","14957","0.0-1.0-0.14","fgvgxn7qyg","482.40000000078","<span class=stimul>tur</span>","0","Correct"
"","html-button-response","16","15576","0.0-1.0-0.15","fgvgxn7qyg","615.4000000024098","<span class=stimul>veur</span>","0","Correct"
"","html-button-response","17","16029","0.0-1.0-0.16","fgvgxn7qyg","449.3000000002212","<span class=stimul>col</span>","0","Correct"
"","html-button-response","18","16538","0.0-1.0-0.17","fgvgxn7qyg","505.1000000021304","<span class=stimul>noil</span>","0","Correct"
"","html-button-response","19","17028","0.0-1.0-0.18","fgvgxn7qyg","486.10000000189757","<span class=stimul>opa</span>","0","Correct"
"","html-button-response","20","17584","0.0-1.0-0.19","fgvgxn7qyg","552.0999999971536","<span class=stimul>jal</span>","0","Correct"
"","html-button-response","21","18059","0.0-1.0-0.20","fgvgxn7qyg","470.9000000002561","<span class=stimul>neau</span>","0","Correct"
"","html-button-response","22","18476","0.0-1.0-0.21","fgvgxn7qyg","413.300000000163","<span class=stimul>timé</span>","0","Correct"
"","html-button-response","23","18958","0.0-1.0-0.22","fgvgxn7qyg","478.2999999988533","<span class=stimul>cal</span>","0","Correct"
"","html-button-response","24","19360","0.0-1.0-0.23","fgvgxn7qyg","394.0999999977066","<span class=stimul>tibe</span>","0","Correct"
"","html-button-response","25","19891","0.0-1.0-0.24","fgvgxn7qyg","526.9999999982247","<span class=stimul>lupe</span>","0","Correct"
"","html-button-response","26","20571","0.0-1.0-0.25","fgvgxn7qyg","675.7000000034168","<span class=stimul>pirde</span>","0","Correct"
"","html-button-response","27","21033","0.0-1.0-0.26","fgvgxn7qyg","458.30000000205473","<span class=stimul>gor</span>","0","Correct"
"","html-button-response","28","21513","0.0-1.0-0.27","fgvgxn7qyg","476.69999999925494","<span class=stimul>ablir</span>","0","Correct"
"","html-button-response","29","21995","0.0-1.0-0.28","fgvgxn7qyg","478.2000000013795","<span class=stimul>sar</span>","0","Correct"
"","html-button-response","30","22480","0.0-1.0-0.29","fgvgxn7qyg","480.4999999978463","<span class=stimul>vaipe</span>","0","Correct"
"","html-button-response","31","23348","0.0-1.0-0.30","fgvgxn7qyg","864.7000000019034","<span class=stimul>cifale</span>","0","Correct"
"","html-button-response","32","24468","0.0-1.0-0.31","fgvgxn7qyg","1116.3999999989755","<span class=stimul>sapir</span>","0","Correct"
"","html-button-response","33","25409","0.0-1.0-0.32","fgvgxn7qyg","936.7999999994936","<span class=stimul>vro</span>","0","Correct"
"","html-button-response","34","26017","0.0-1.0-0.33","fgvgxn7qyg","603.8000000007742","<span class=stimul>rigne</span>","0","Correct"
"","html-button-response","35","26539","0.0-1.0-0.34","fgvgxn7qyg","518.1000000011409","<span class=stimul>rosan</span>","0","Correct"
"","html-button-response","36","27268","0.0-1.0-0.35","fgvgxn7qyg","725.2999999982421","<span class=stimul>aubre</span>","0","Correct"
"","html-button-response","37","27792","0.0-1.0-0.36","fgvgxn7qyg","520.700000000943","<span class=stimul>talpe</span>","0","Correct"
"","html-button-response","38","28307","0.0-1.0-0.37","fgvgxn7qyg","510.2999999980966","<span class=stimul>gur</span>","0","Correct"
"","html-button-response","39","28803","0.0-1.0-0.38","fgvgxn7qyg","492.09999999948195","<span class=stimul>louré</span>","0","Correct"
"","html-button-response","40","29256","0.0-1.0-0.39","fgvgxn7qyg","448.8999999994121","<span class=stimul>ragife</span>","0","Correct"
"","html-button-response","41","30321","0.0-1.0-0.40","fgvgxn7qyg","1061.200000000099","<span class=stimul>noge</span>","0","Correct"
"","html-button-response","42","30900","0.0-1.0-0.41","fgvgxn7qyg","575.4999999990105","<span class=stimul>tope</span>","0","Correct"
"","html-button-response","43","31277","0.0-1.0-0.42","fgvgxn7qyg","372.6999999998952","<span class=stimul>uché</span>","0","Correct"
"","html-button-response","44","31809","0.0-1.0-0.43","fgvgxn7qyg","528.8999999975204","<span class=stimul>truson</span>","0","Correct"
"","html-button-response","45","32408","0.0-1.0-0.44","fgvgxn7qyg","594.2999999970198","<span class=stimul>ranli</span>","0","Correct"
"","html-button-response","46","33559","0.0-1.0-0.45","fgvgxn7qyg","1147.400000001653","<span class=stimul>tosir</span>","0","Correct"
"","html-button-response","47","34093","0.0-1.0-0.46","fgvgxn7qyg","530.5000000007567","<span class=stimul>poitade</span>","0","Correct"
"","html-button-response","48","34626","0.0-1.0-0.47","fgvgxn7qyg","529.0999999997439","<span class=stimul>ousir</span>","0","Correct"
"","html-button-response","49","35190","0.0-1.0-0.48","fgvgxn7qyg","559.5000000030268","<span class=stimul>bapre</span>","0","Correct"
"","html-button-response","50","38361","0.0-1.0-0.49","fgvgxn7qyg","3167.0999999987544","<span class=stimul>gigne</span>","1","Incorrect"
"","html-button-response","51","38843","0.0-1.0-0.50","fgvgxn7qyg","478.50000000107684","<span class=stimul>gésin</span>","1","Incorrect"
"","html-button-response","52","39179","0.0-1.0-0.51","fgvgxn7qyg","331.89999999740394","<span class=stimul>kraulir</span>","0","Correct"
"","html-button-response","53","39814","0.0-1.0-0.52","fgvgxn7qyg","631.600000000617","<span class=stimul>cibe</span>","0","Correct"
"","html-button-response","54","40256","0.0-1.0-0.53","fgvgxn7qyg","437.8999999971711","<span class=stimul>maipe</span>","0","Correct"
"","html-button-response","55","40741","0.0-1.0-0.54","fgvgxn7qyg","481.10000000087894","<span class=stimul>ligase</span>","0","Correct"
"","html-button-response","56","41560","0.0-1.0-0.55","fgvgxn7qyg","814.8000000001048","<span class=stimul>gofi</span>","0","Correct"
"","html-button-response","57","42140","0.0-1.0-0.56","fgvgxn7qyg","575.8000000023458","<span class=stimul>cipre</span>","0","Correct"
"","html-button-response","58","42675","0.0-1.0-0.57","fgvgxn7qyg","531.1000000001513","<span class=stimul>tasin</span>","0","Correct"
"","html-button-response","59","43363","0.0-1.0-0.58","fgvgxn7qyg","683.5000000028231","<span class=stimul>cipé</span>","0","Correct"
"","html-button-response","60","44220","0.0-1.0-0.59","fgvgxn7qyg","853.5999999985506","<span class=stimul>punse</span>","0","Correct"
"true","fullscreen","61","45223","0.0-2.0","fgvgxn7qyg","","","",""
"true","fullscreen","0","4731","0.0-0.0","tkx7f34enl","","","",""
"","html-button-response","1","7599","0.0-1.0-0.0","tkx7f34enl","2845.7999999955064","<span class=stimul>o</span>","0","Correct"
"","html-button-response","2","8231","0.0-1.0-0.1","tkx7f34enl","627.0000000004075","<span class=stimul>i</span>","0","Correct"
"","html-button-response","3","8449","0.0-1.0-0.2","tkx7f34enl","214.50000000186265","<span class=stimul>bi</span>","0","Correct"
"","html-button-response","4","8707","0.0-1.0-0.3","tkx7f34enl","254.39999999798601","<span class=stimul>ul</span>","0","Correct"
"","html-button-response","5","9098","0.0-1.0-0.4","tkx7f34enl","385.999999998603","<span class=stimul>til</span>","0","Correct"
"","html-button-response","6","9495","0.0-1.0-0.5","tkx7f34enl","394.00000000023283","<span class=stimul>ja</span>","0","Correct"
"","html-button-response","7","10086","0.0-1.0-0.6","tkx7f34enl","586.9000000020606","<span class=stimul>ol</span>","0","Correct"
"","html-button-response","8","10494","0.0-1.0-0.7","tkx7f34enl","403.89999999752035","<span class=stimul>ata</span>","0","Correct"
"","html-button-response","9","10926","0.0-1.0-0.8","tkx7f34enl","428.19999999483116","<span class=stimul>dik</span>","0","Correct"
"","html-button-response","10","11390","0.0-1.0-0.9","tkx7f34enl","460.30000000610016","<span class=stimul>nar</span>","0","Correct"
"","html-button-response","11","11814","0.0-1.0-0.10","tkx7f34enl","419.99999999825377","<span class=stimul>vaf</span>","0","Correct"
"","html-button-response","12","12281","0.0-1.0-0.11","tkx7f34enl","463.7000000002445","<span class=stimul>zou</span>","0","Correct"
"","html-button-response","13","12994","0.0-1.0-0.12","tkx7f34enl","709.0000000025611","<span class=stimul>dul</span>","0","Correct"
"","html-button-response","14","13502","0.0-1.0-0.13","tkx7f34enl","503.49999999889405","<span class=stimul>lévo</span>","0","Correct"
"","html-button-response","15","14437","0.0-1.0-0.14","tkx7f34enl","931.3999999940279","<span class=stimul>tur</span>","0","Correct"
"","html-button-response","16","14917","0.0-1.0-0.15","tkx7f34enl","475.99999999511056","<span class=stimul>veur</span>","0","Correct"
