"success","trial_type","trial_index","time_elapsed","internal_node_id","ID","rt","stimulus","button_pressed","button_pressed_text"
"true","fullscreen","0","6312","0.0-0.0","jxd9856xq7","","","",""
"","html-button-response","1","7080","0.0-1.0","jxd9856xq7","757.6000000008207"," ","1","9"
"","html-button-response","2","7827","0.0-2.0","jxd9856xq7","742.7999999999884"," ","1","6"
"","html-button-response","3","8477","0.0-3.0","jxd9856xq7","647.6999999977124"," ","0","5"
"","html-button-response","4","9157","0.0-4.0","jxd9856xq7","676.6999999999825"," ","0","3"
"","html-button-response","5","9785","0.0-5.0","jxd9856xq7","624.7000000003027"," ","0","4"
"","html-button-response","6","10478","0.0-6.0","jxd9856xq7","690.7000000028347"," ","1","5"
"","html-button-response","7","11150","0.0-7.0","jxd9856xq7","668.3999999986554"," ","1","6"
"","html-button-response","8","11788","0.0-8.0","jxd9856xq7","635.099999999511"," ","0","8"
"","html-button-response","9","12464","0.0-9.0","jxd9856xq7","673.2999999985623"," ","1","7"
"","html-button-response","10","13126","0.0-10.0","jxd9856xq7","658.9999999996508"," ","0","2"
"","html-button-response","11","13925","0.0-11.0","jxd9856xq7","796.5999999978521"," ","0","6"
"","html-button-response","12","14579","0.0-12.0","jxd9856xq7","651.0000000016589"," ","1","4"
"","html-button-response","13","15314","0.0-13.0","jxd9856xq7","732.5000000018917"," ","0","9"
"","html-button-response","14","16041","0.0-14.0","jxd9856xq7","723.6999999986438"," ","1","8"
"","html-button-response","15","16737","0.0-15.0","jxd9856xq7","693.1999999978871"," ","1","5"
"","html-button-response","16","17414","0.0-16.0","jxd9856xq7","674.2000000012922"," ","0","7"
"","html-button-response","17","18171","0.0-17.0","jxd9856xq7","754.4999999990978"," ","1","9"
"","html-button-response","18","18934","0.0-18.0","jxd9856xq7","759.9999999983993"," ","0","7"
"","html-button-response","19","19653","0.0-19.0","jxd9856xq7","714.8999999990338"," ","0","5"
"","html-button-response","20","20348","0.0-20.0","jxd9856xq7","692.2999999987951"," ","1","9"
"","html-button-response","21","21009","0.0-21.0","jxd9856xq7","658.2000000016706"," ","1","4"
"","html-button-response","22","21657","0.0-22.0","jxd9856xq7","645.1999999990221"," ","0","8"
"","html-button-response","23","22301","0.0-23.0","jxd9856xq7","639.9999999994179"," ","1","2"
"","html-button-response","24","22923","0.0-24.0","jxd9856xq7","618.9000000013039"," ","0","4"
"","html-button-response","25","23665","0.0-25.0","jxd9856xq7","740.0000000016007"," ","1","6"
"","html-button-response","26","24303","0.0-26.0","jxd9856xq7","634.6000000012282"," ","0","8"
"","html-button-response","27","25014","0.0-27.0","jxd9856xq7","708.200000000943"," ","1","9"
"","html-button-response","28","25695","0.0-28.0","jxd9856xq7","678.1000000009954"," ","1","5"
"","html-button-response","29","26371","0.0-29.0","jxd9856xq7","672.6999999991676"," ","0","6"
"","html-button-response","30","27001","0.0-30.0","jxd9856xq7","627.3000000001048"," ","1","7"
"","html-button-response","31","27761","0.0-31.0","jxd9856xq7","757.3999999985972"," ","1","6"
"","html-button-response","32","28383","0.0-32.0","jxd9856xq7","618.8999999976659"," ","0","4"
"","html-button-response","33","29020","0.0-33.0","jxd9856xq7","634.5000000001164"," ","0","2"
"","html-button-response","34","29666","0.0-34.0","jxd9856xq7","642.8999999989173"," ","0","9"
"","html-button-response","35","30368","0.0-35.0","jxd9856xq7","698.7000000008265"," ","1","5"
"","html-button-response","36","30997","0.0-36.0","jxd9856xq7","626.299999999901"," ","0","8"
"","html-button-response","37","31594","0.0-37.0","jxd9856xq7","593.8000000023749"," ","1","3"
"","html-button-response","38","32386","0.0-38.0","jxd9856xq7","789.6999999975378"," ","1","7"
"","html-button-response","39","32972","0.0-39.0","jxd9856xq7","582.9999999987194"," ","0","9"
"","html-button-response","40","33586","0.0-40.0","jxd9856xq7","611.2000000030093"," ","1","8"
"","html-button-response","41","34183","0.0-41.0","jxd9856xq7","594.3000000006577"," ","0","6"
"","html-button-response","42","34838","0.0-42.0","jxd9856xq7","651.39999999883"," ","0","5"
"","html-button-response","43","35477","0.0-43.0","jxd9856xq7","636.2000000008265"," ","0","7"
"","html-button-response","44","36064","0.0-44.0","jxd9856xq7","584.500000000844"," ","1","5"
"","html-button-response","45","36767","0.0-45.0","jxd9856xq7","699.3000000002212"," ","1","9"
"","html-button-response","46","37332","0.0-46.0","jxd9856xq7","562.9000000008091"," ","0","4"
"","html-button-response","47","37978","0.0-47.0","jxd9856xq7","642.4999999981083"," ","0","9"
"","html-button-response","48","38677","0.0-48.0","jxd9856xq7","695.9999999999127"," ","1","8"
"","html-button-response","49","39344","0.0-49.0","jxd9856xq7","664.600000000064"," ","1","4"
"","html-button-response","50","39941","0.0-50.0","jxd9856xq7","593.8000000023749"," ","1","6"
"","html-button-response","51","40521","0.0-51.0","jxd9856xq7","576.4999999992142"," ","0","5"
"","html-button-response","52","41145","0.0-52.0","jxd9856xq7","621.6000000022177"," ","0","9"
"","html-button-response","53","41713","0.0-53.0","jxd9856xq7","565.2000000009139"," ","0","5"
"","html-button-response","54","42310","0.0-54.0","jxd9856xq7","593.8999999998487"," ","1","2"
"","html-button-response","55","42965","0.0-55.0","jxd9856xq7","651.9000000007509"," ","0","7"
"","html-button-response","56","43610","0.0-56.0","jxd9856xq7","641.9999999998254"," ","1","9"
"","html-button-response","57","44222","0.0-57.0","jxd9856xq7","608.700000000681"," ","0","8"
"","html-button-response","58","44941","0.0-58.0","jxd9856xq7","716.4999999986321"," ","0","6"
"","html-button-response","59","45581","0.0-59.0","jxd9856xq7","636.900000001333"," ","1","7"
"","html-button-response","60","46226","0.0-60.0","jxd9856xq7","641.9999999998254"," ","1","3"
"true","fullscreen","61","47230","0.0-61.0","jxd9856xq7","","","",""
"true","fullscreen","0","14223","0.0-0.0","b0kwryrj2v","","","",""
"","html-button-response","1","15107","0.0-1.0","b0kwryrj2v","864.7999999957392"," ","1","9"
"","html-button-response","2","15835","0.0-2.0","b0kwryrj2v","724.5000000038999"," ","1","6"
"","html-button-response","3","16532","0.0-3.0","b0kwryrj2v","694.100000000617"," ","0","5"
"","html-button-response","4","17206","0.0-4.0","b0kwryrj2v","671.200000004319"," ","0","3"
"","html-button-response","5","17803","0.0-5.0","b0kwryrj2v","593.4000000052038"," ","0","4"
"","html-button-response","6","18353","0.0-6.0","b0kwryrj2v","547.2000000008848"," ","1","5"
"","html-button-response","7","18895","0.0-7.0","b0kwryrj2v","538.9999999970314"," ","1","6"
"","html-button-response","8","19508","0.0-8.0","b0kwryrj2v","610.4000000050291"," ","0","8"
"","html-button-response","9","20052","0.0-9.0","b0kwryrj2v","540.3000000005704"," ","1","7"
"","html-button-response","10","20624","0.0-10.0","b0kwryrj2v","569.2999999955646"," ","0","2"
"","html-button-response","11","21338","0.0-11.0","b0kwryrj2v","711.4000000001397"," ","0","6"
"","html-button-response","12","21878","0.0-12.0","b0kwryrj2v","537.400000001071"," ","1","4"
"","html-button-response","13","22510","0.0-13.0","b0kwryrj2v","629.0000000008149"," ","0","9"
"","html-button-response","14","23052","0.0-14.0","b0kwryrj2v","538.3999999976368"," ","1","8"
"","html-button-response","15","23642","0.0-15.0","b0kwryrj2v","587.6999999964028"," ","1","5"
"","html-button-response","16","24322","0.0-16.0","b0kwryrj2v","676.2999999991735"," ","0","7"
"","html-button-response","17","24872","0.0-17.0","b0kwryrj2v","547.2000000008848"," ","1","9"
"","html-button-response","18","26092","0.0-18.0","b0kwryrj2v","1216.8999999994412"," ","0","7"
"","html-button-response","19","27685","0.0-19.0","b0kwryrj2v","1590.1000000012573"," ","0","5"
"","html-button-response","20","28456","0.0-20.0","b0kwryrj2v","768.0000000036671"," ","1","9"
"","html-button-response","21","29071","0.0-21.0","b0kwryrj2v","612.0999999984633"," ","1","4"
"","html-button-response","22","29801","0.0-22.0","b0kwryrj2v","726.3999999995576"," ","0","8"
"","html-button-response","23","30425","0.0-23.0","b0kwryrj2v","621.0999999966589"," ","1","2"
"","html-button-response","24","31090","0.0-24.0","b0kwryrj2v","662.4999999985448"," ","0","4"
"","html-button-response","25","31639","0.0-25.0","b0kwryrj2v","545.2000000004773"," ","1","6"
"","html-button-response","26","32163","0.0-26.0","b0kwryrj2v","521.8999999997322"," ","1","7"
"","html-button-response","27","33089","0.0-27.0","b0kwryrj2v","922.5000000005821"," ","1","9"
"","html-button-response","28","33770","0.0-28.0","b0kwryrj2v","678.5000000018044"," ","1","5"
"","html-button-response","29","34427","0.0-29.0","b0kwryrj2v","646.7999999949825"," ","0","6"
"","html-button-response","30","35000","0.0-30.0","b0kwryrj2v","569.8000000047614"," ","1","7"
"","html-button-response","31","35698","0.0-31.0","b0kwryrj2v","695.5000000016298"," ","1","6"
"","html-button-response","32","36338","0.0-32.0","b0kwryrj2v","636.9000000049709"," ","0","4"
"","html-button-response","33","36968","0.0-33.0","b0kwryrj2v","627.3999999975786"," ","0","2"
"","html-button-response","34","37723","0.0-34.0","b0kwryrj2v","751.6000000032363"," ","0","9"
"","html-button-response","35","38389","0.0-35.0","b0kwryrj2v","662.5999999960186"," ","1","5"
"","html-button-response","36","39267","0.0-36.0","b0kwryrj2v","874.8000000050524"," ","0","8"
"","html-button-response","37","39848","0.0-37.0","b0kwryrj2v","578.3999999985099"," ","1","3"
"","html-button-response","38","40447","0.0-38.0","b0kwryrj2v","595.6000000005588"," ","1","7"
"","html-button-response","39","41077","0.0-39.0","b0kwryrj2v","627.5000000023283"," ","0","9"
"","html-button-response","40","41612","0.0-40.0","b0kwryrj2v","531.3999999998487"," ","1","8"
"","html-button-response","41","42231","0.0-41.0","b0kwryrj2v","616.8000000034226"," ","0","6"
"","html-button-response","42","42887","0.0-42.0","b0kwryrj2v","652.8000000034808"," ","0","5"
"","html-button-response","43","44051","0.0-43.0","b0kwryrj2v","1161.100000004808"," ","0","7"
"","html-button-response","44","44722","0.0-44.0","b0kwryrj2v","667.699999998149"," ","1","5"
"","html-button-response","45","45395","0.0-45.0","b0kwryrj2v","669.8000000033062"," ","1","9"
"","html-button-response","46","46033","0.0-46.0","b0kwryrj2v","635.7000000061817"," ","0","4"
"","html-button-response","47","47279","0.0-47.0","b0kwryrj2v","1242.999999994936"," ","0","9"
"","html-button-response","48","48148","0.0-48.0","b0kwryrj2v","865.5999999973574"," ","1","8"
"","html-button-response","49","49000","0.0-49.0","b0kwryrj2v","848.3999999953085"," ","1","4"
"","html-button-response","50","49584","0.0-50.0","b0kwryrj2v","580.999999998312"," ","1","6"
"","html-button-response","51","50164","0.0-51.0","b0kwryrj2v","576.6999999977998"," ","0","5"
"","html-button-response","52","50917","0.0-52.0","b0kwryrj2v","750.3999999971711"," ","0","9"
"","html-button-response","53","51663","0.0-53.0","b0kwryrj2v","743.1999999971595"," ","0","5"
"","html-button-response","54","52312","0.0-54.0","b0kwryrj2v","645.700000000943"," ","1","2"
"","html-button-response","55","53172","0.0-55.0","b0kwryrj2v","856.8000000013853"," ","0","7"
"","html-button-response","56","54279","0.0-56.0","b0kwryrj2v","1103.4999999974389"," ","1","9"
"","html-button-response","57","54941","0.0-57.0","b0kwryrj2v","659.3999999968219"," ","0","8"
"","html-button-response","58","55621","0.0-58.0","b0kwryrj2v","677.1000000007916"," ","0","6"
"","html-button-response","59","56212","0.0-59.0","b0kwryrj2v","587.8999999986263"," ","1","7"
"","html-button-response","60","57000","0.0-60.0","b0kwryrj2v","784.6999999965192"," ","1","3"
"true","fullscreen","61","58003","0.0-61.0","b0kwryrj2v","","","",""
"true","fullscreen","0","10149","0.0-0.0","9beh804k32","","","",""
"","html-button-response","1","11383","0.0-1.0","9beh804k32","1207.6000000015483"," ","1","9"
"","html-button-response","2","12264","0.0-2.0","9beh804k32","877.7000000045518"," ","1","6"
"","html-button-response","3","13067","0.0-3.0","9beh804k32","800.199999997858"," ","0","5"
"","html-button-response","4","13804","0.0-4.0","9beh804k32","733.5999999995693"," ","0","3"
"","html-button-response","5","14507","0.0-5.0","9beh804k32","700.0000000043656"," ","0","4"
"","html-button-response","6","15168","0.0-6.0","9beh804k32","658.6000000024796"," ","1","5"
"","html-button-response","7","15905","0.0-7.0","9beh804k32","733.2000000023982"," ","1","6"
"","html-button-response","8","16598","0.0-8.0","9beh804k32","690.8000000039465"," ","0","8"
"","html-button-response","9","17317","0.0-9.0","9beh804k32","716.5000000022701"," ","1","7"
"","html-button-response","10","18078","0.0-10.0","9beh804k32","757.5999999971827"," ","0","2"
"","html-button-response","11","18847","0.0-11.0","9beh804k32","765.5999999988126"," ","0","6"
"","html-button-response","12","19533","0.0-12.0","9beh804k32","683.2999999969616"," ","1","4"
"","html-button-response","13","20359","0.0-13.0","9beh804k32","822.599999999511"," ","0","9"
"","html-button-response","14","21116","0.0-14.0","9beh804k32","754.4999999954598"," ","1","8"
"","html-button-response","15","21818","0.0-15.0","9beh804k32","698.7000000008265"," ","1","5"
"","html-button-response","16","22569","0.0-16.0","9beh804k32","747.9000000021188"," ","0","7"
"","html-button-response","17","23306","0.0-17.0","9beh804k32","733.5999999995693"," ","1","9"
"","html-button-response","18","24103","0.0-18.0","9beh804k32","794.6999999985565"," ","0","7"
"","html-button-response","19","24765","0.0-19.0","9beh804k32","659.0999999971245"," ","0","5"
"","html-button-response","20","25466","0.0-20.0","9beh804k32","698.2000000061817"," ","1","9"
"","html-button-response","21","26152","0.0-21.0","9beh804k32","682.8999999997905"," ","1","4"
"","html-button-response","22","26929","0.0-22.0","9beh804k32","774.0999999950873"," ","0","8"
"","html-button-response","23","27622","0.0-23.0","9beh804k32","690.0000000023283"," ","1","2"
"","html-button-response","24","28274","0.0-24.0","9beh804k32","649.1000000023632"," ","0","4"
"","html-button-response","25","28942","0.0-25.0","9beh804k32","665.0999999983469"," ","1","6"
"","html-button-response","26","29604","0.0-26.0","9beh804k32","659.1000000044005"," ","0","8"
"","html-button-response","27","30321","0.0-27.0","9beh804k32","714.4000000043889"," ","1","9"
"","html-button-response","28","31072","0.0-28.0","9beh804k32","747.0000000030268"," ","1","5"
"","html-button-response","29","31757","0.0-29.0","9beh804k32","681.0000000041327"," ","0","6"
"","html-button-response","30","32474","0.0-30.0","9beh804k32","714.2999999996391"," ","1","7"
"","html-button-response","31","33310","0.0-31.0","9beh804k32","831.7999999999302"," ","1","6"
"","html-button-response","32","33935","0.0-32.0","9beh804k32","622.5999999951455"," ","0","4"
"","html-button-response","33","34605","0.0-33.0","9beh804k32","667.4000000057276"," ","0","2"
"","html-button-response","34","35397","0.0-34.0","9beh804k32","788.5999999998603"," ","0","9"
"","html-button-response","35","36272","0.0-35.0","9beh804k32","871.500000001106"," ","1","5"
"","html-button-response","36","36998","0.0-36.0","9beh804k32","723.1000000028871"," ","0","8"
"","html-button-response","37","37700","0.0-37.0","9beh804k32","699.1999999954714"," ","1","3"
"","html-button-response","38","38392","0.0-38.0","9beh804k32","689.1000000032363"," ","0","6"
"","html-button-response","39","39135","0.0-39.0","9beh804k32","739.7000000055414"," ","0","9"
"","html-button-response","40","39763","0.0-40.0","9beh804k32","625.7000000041444"," ","1","8"
"","html-button-response","41","40380","0.0-41.0","9beh804k32","613.7999999991735"," ","0","6"
"","html-button-response","42","41065","0.0-42.0","9beh804k32","682.200000002922"," ","0","5"
"","html-button-response","43","41833","0.0-43.0","9beh804k32","764.6999999997206"," ","0","7"
"","html-button-response","44","42492","0.0-44.0","9beh804k32","656.699999999546"," ","1","5"
"","html-button-response","45","43276","0.0-45.0","9beh804k32","780.800000000454"," ","1","9"
"","html-button-response","46","44127","0.0-46.0","9beh804k32","847.2000000037951"," ","0","4"
"","html-button-response","47","45010","0.0-47.0","9beh804k32","879.6999999976833"," ","0","9"
"","html-button-response","48","45916","0.0-48.0","9beh804k32","902.9000000009546"," ","1","8"
"","html-button-response","49","46800","0.0-49.0","9beh804k32","881.3999999983935"," ","1","4"
"","html-button-response","50","47486","0.0-50.0","9beh804k32","681.9000000032247"," ","1","6"
"","html-button-response","51","48198","0.0-51.0","9beh804k32","708.8999999978114"," ","0","5"
"","html-button-response","52","49156","0.0-52.0","9beh804k32","955.09999999922"," ","0","9"
"","html-button-response","53","49849","0.0-53.0","9beh804k32","689.8000000001048"," ","0","5"
"","html-button-response","54","50556","0.0-54.0","9beh804k32","703.3000000010361"," ","1","2"
"","html-button-response","55","51396","0.0-55.0","9beh804k32","837.8999999986263"," ","0","7"
"","html-button-response","56","52082","0.0-56.0","9beh804k32","682.0000000006985"," ","1","9"
"","html-button-response","57","52863","0.0-57.0","9beh804k32","778.2999999981257"," ","0","8"
"","html-button-response","58","53729","0.0-58.0","9beh804k32","862.9000000000815"," ","0","6"
"","html-button-response","59","54628","0.0-59.0","9beh804k32","896.1999999955879"," ","1","7"
"","html-button-response","60","55395","0.0-60.0","9beh804k32","764.2999999952735"," ","1","3"
"true","fullscreen","61","56400","0.0-61.0","9beh804k32","","","",""
"true","fullscreen","0","11500","0.0-0.0","tv1ychurkt","","","",""
"","html-button-response","1","12437","0.0-1.0","tv1ychurkt","917.1999999962281"," ","1","9"
"","html-button-response","2","13360","0.0-2.0","tv1ychurkt","919.3999999988591"," ","1","6"
"","html-button-response","3","15329","0.0-3.0","tv1ychurkt","1965.8000000054017"," ","0","5"
"","html-button-response","4","16251","0.0-4.0","tv1ychurkt","919.6999999985565"," ","0","3"
"","html-button-response","5","17051","0.0-5.0","tv1ychurkt","796.8000000037136"," ","0","4"
"","html-button-response","6","17790","0.0-6.0","tv1ychurkt","735.4000000050291"," ","1","5"
"","html-button-response","7","18638","0.0-7.0","tv1ychurkt","845.3000000008615"," ","1","6"
"","html-button-response","8","19375","0.0-8.0","tv1ychurkt","734.1999999989639"," ","0","8"
"","html-button-response","9","20103","0.0-9.0","tv1ychurkt","724.6999999988475"," ","1","7"
"","html-button-response","10","20949","0.0-10.0","tv1ychurkt","843.6999999976251"," ","0","2"
"","html-button-response","11","21838","0.0-11.0","tv1ychurkt","886.2000000008265"," ","0","6"
"","html-button-response","12","22554","0.0-12.0","tv1ychurkt","712.8999999986263"," ","1","4"
"","html-button-response","13","23340","0.0-13.0","tv1ychurkt","783.3000000027823"," ","0","9"
"","html-button-response","14","24084","0.0-14.0","tv1ychurkt","741.0999999992782"," ","1","8"
"","html-button-response","15","24795","0.0-15.0","tv1ychurkt","707.5000000040745"," ","1","5"
"","html-button-response","16","25581","0.0-16.0","tv1ychurkt","783.4999999977299"," ","0","7"
"","html-button-response","17","26430","0.0-17.0","tv1ychurkt","846.3000000047032"," ","1","9"
"","html-button-response","18","27213","0.0-18.0","tv1ychurkt","779.6999999991385"," ","0","7"
"","html-button-response","19","27980","0.0-19.0","tv1ychurkt","763.8000000006286"," ","0","5"
"","html-button-response","20","28879","0.0-20.0","tv1ychurkt","895.7999999984168"," ","1","9"
"","html-button-response","21","29581","0.0-21.0","tv1ychurkt","699.7000000046683"," ","1","4"
"","html-button-response","22","30349","0.0-22.0","tv1ychurkt","764.4000000000233"," ","0","8"
"","html-button-response","23","31115","0.0-23.0","tv1ychurkt","763.3999999961816"," ","1","2"
"","html-button-response","24","31890","0.0-24.0","tv1ychurkt","772.1000000019558"," ","0","4"
"","html-button-response","25","32739","0.0-25.0","tv1ychurkt","846.1000000024796"," ","1","6"
"","html-button-response","26","33458","0.0-26.0","tv1ychurkt","715.6000000031781"," ","0","8"
"","html-button-response","27","34224","0.0-27.0","tv1ychurkt","763.1000000037602"," ","1","9"
"","html-button-response","28","35181","0.0-28.0","tv1ychurkt","953.6999999982072"," ","1","5"
"","html-button-response","29","35913","0.0-29.0","tv1ychurkt","721.9000000040978"," ","0","6"
"","html-button-response","30","36647","0.0-30.0","tv1ychurkt","731.3999999969383"," ","1","7"
"","html-button-response","31","37658","0.0-31.0","tv1ychurkt","1007.499999999709"," ","1","6"
"","html-button-response","32","38459","0.0-32.0","tv1ychurkt","797.7000000028056"," ","0","4"
"","html-button-response","33","39290","0.0-33.0","tv1ychurkt","828.2000000035623"," ","0","2"
"","html-button-response","34","40065","0.0-34.0","tv1ychurkt","771.8999999997322"," ","1","8"
"","html-button-response","35","41759","0.0-35.0","tv1ychurkt","1690.999999998894"," ","1","5"
"","html-button-response","36","42552","0.0-36.0","tv1ychurkt","790.1000000056229"," ","0","8"
"","html-button-response","37","43352","0.0-37.0","tv1ychurkt","796.4000000065425"," ","1","3"
"","html-button-response","38","44193","0.0-38.0","tv1ychurkt","838.1000000008498"," ","0","6"
"","html-button-response","39","45115","0.0-39.0","tv1ychurkt","919.6999999985565"," ","0","9"
"","html-button-response","40","45925","0.0-40.0","tv1ychurkt","807.0000000006985"," ","1","8"
"","html-button-response","41","46751","0.0-41.0","tv1ychurkt","822.599999999511"," ","0","6"
"","html-button-response","42","47583","0.0-42.0","tv1ychurkt","828.800000002957"," ","0","5"
"","html-button-response","43","48727","0.0-43.0","tv1ychurkt","1141.5000000051805"," ","0","7"
"","html-button-response","44","49438","0.0-44.0","tv1ychurkt","707.300000001851"," ","1","5"
"","html-button-response","45","50498","0.0-45.0","tv1ychurkt","1057.199999995646"," ","1","9"
"","html-button-response","46","51291","0.0-46.0","tv1ychurkt","789.4999999989523"," ","0","4"
"","html-button-response","47","52402","0.0-47.0","tv1ychurkt","1108.0999999976484"," ","0","9"
"","html-button-response","48","53177","0.0-48.0","tv1ychurkt","772.4999999991269"," ","1","8"
"","html-button-response","49","54438","0.0-49.0","tv1ychurkt","1258.1000000063796"," ","1","4"
"","html-button-response","50","55154","0.0-50.0","tv1ychurkt","712.4000000039814"," ","1","6"
"","html-button-response","51","55847","0.0-51.0","tv1ychurkt","689.9000000048545"," ","0","5"
"","html-button-response","52","56973","0.0-52.0","tv1ychurkt","1122.9000000021188"," ","0","9"
"","html-button-response","53","57879","0.0-53.0","tv1ychurkt","902.9999999984284"," ","0","5"
"","html-button-response","54","58613","0.0-54.0","tv1ychurkt","731.099999997241"," ","1","2"
"","html-button-response","55","59430","0.0-55.0","tv1ychurkt","813.6999999987893"," ","0","7"
"","html-button-response","56","60139","0.0-56.0","tv1ychurkt","706.5999999977066"," ","1","9"
"","html-button-response","57","60842","0.0-57.0","tv1ychurkt","700.1999999993131"," ","0","8"
"","html-button-response","58","61799","0.0-58.0","tv1ychurkt","953.9000000004307"," ","0","6"
"","html-button-response","59","62916","0.0-59.0","tv1ychurkt","1113.9000000039232"," ","1","7"
"","html-button-response","60","63823","0.0-60.0","tv1ychurkt","903.3999999955995"," ","1","3"
"true","fullscreen","61","64826","0.0-61.0","tv1ychurkt","","","",""
"true","fullscreen","0","13437","0.0-0.0","kefszyv1jc","","","",""
"","html-button-response","1","14481","0.0-1.0","kefszyv1jc","1024.0000000012515"," ","1","9"
"","html-button-response","2","15225","0.0-2.0","kefszyv1jc","739.6999999982654"," ","1","6"
"","html-button-response","3","15996","0.0-3.0","kefszyv1jc","767.4000000006345"," ","0","5"
"","html-button-response","4","16702","0.0-4.0","kefszyv1jc","703.1999999999243"," ","0","3"
"","html-button-response","5","17341","0.0-5.0","kefszyv1jc","635.3999999992084"," ","0","4"
"","html-button-response","6","17929","0.0-6.0","kefszyv1jc","583.8000000003376"," ","1","5"
"","html-button-response","7","18624","0.0-7.0","kefszyv1jc","692.1000000002095"," ","1","6"
"","html-button-response","8","19201","0.0-8.0","kefszyv1jc","573.5999999997148"," ","0","8"
"","html-button-response","9","19788","0.0-9.0","kefszyv1jc","582.8000000001339"," ","1","7"
"","html-button-response","10","20417","0.0-10.0","kefszyv1jc","626.0999999976775"," ","0","2"
"","html-button-response","11","21110","0.0-11.0","kefszyv1jc","689.8000000001048"," ","0","6"
"","html-button-response","12","21706","0.0-12.0","kefszyv1jc","592.4999999988358"," ","1","4"
"","html-button-response","13","22282","0.0-13.0","kefszyv1jc","573.3000000000175"," ","0","9"
"","html-button-response","14","22919","0.0-14.0","kefszyv1jc","632.900000000518"," ","1","8"
"","html-button-response","15","23514","0.0-15.0","kefszyv1jc","592.0999999980268"," ","1","5"
"","html-button-response","16","24109","0.0-16.0","kefszyv1jc","591.8000000019674"," ","0","7"
"","html-button-response","17","24711","0.0-17.0","kefszyv1jc","599.0999999994528"," ","1","9"
"","html-button-response","18","25281","0.0-18.0","kefszyv1jc","566.899999997986"," ","0","7"
"","html-button-response","19","25844","0.0-19.0","kefszyv1jc","558.8999999999942"," ","0","5"
"","html-button-response","20","26395","0.0-20.0","kefszyv1jc","547.3999999994703"," ","1","9"
"","html-button-response","21","27015","0.0-21.0","kefszyv1jc","616.8999999972584"," ","1","4"
"","html-button-response","22","27608","0.0-22.0","kefszyv1jc","590.0000000001455"," ","0","8"
"","html-button-response","23","28211","0.0-23.0","kefszyv1jc","599.900000001071"," ","1","2"
"","html-button-response","24","28771","0.0-24.0","kefszyv1jc","556.5999999998894"," ","0","4"
"","html-button-response","25","29373","0.0-25.0","kefszyv1jc","599.0999999994528"," ","1","6"
"","html-button-response","26","30198","0.0-26.0","kefszyv1jc","821.8000000015309"," ","0","8"
"","html-button-response","27","30760","0.0-27.0","kefszyv1jc","559.1000000022177"," ","1","9"
"","html-button-response","28","31411","0.0-28.0","kefszyv1jc","647.0999999983178"," ","1","5"
"","html-button-response","29","31979","0.0-29.0","kefszyv1jc","565.3000000020256"," ","0","6"
"","html-button-response","30","32532","0.0-30.0","kefszyv1jc","549.4999999973516"," ","1","7"
"","html-button-response","31","33315","0.0-31.0","kefszyv1jc","779.2000000008557"," ","1","6"
"","html-button-response","32","33924","0.0-32.0","kefszyv1jc","606.4000000005763"," ","0","4"
"","html-button-response","33","34592","0.0-33.0","kefszyv1jc","664.8000000022876"," ","0","2"
"","html-button-response","34","35328","0.0-34.0","kefszyv1jc","732.2999999996682"," ","0","9"
"","html-button-response","35","35976","0.0-35.0","kefszyv1jc","644.9000000029628"," ","1","5"
"","html-button-response","36","36717","0.0-36.0","kefszyv1jc","738.6000000005879"," ","0","8"
"","html-button-response","37","37303","0.0-37.0","kefszyv1jc","582.6999999990221"," ","1","3"
"","html-button-response","38","37937","0.0-38.0","kefszyv1jc","630.1000000021304"," ","1","7"
"","html-button-response","39","38524","0.0-39.0","kefszyv1jc","583.6999999992258"," ","0","9"
"","html-button-response","40","39107","0.0-40.0","kefszyv1jc","580.3000000014435"," ","1","8"
"","html-button-response","41","39735","0.0-41.0","kefszyv1jc","624.5999999991909"," ","0","6"
"","html-button-response","42","40426","0.0-42.0","kefszyv1jc","687.9000000008091"," ","0","5"
"","html-button-response","43","41012","0.0-43.0","kefszyv1jc","572.199999998702"," ","0","7"
"","html-button-response","44","41597","0.0-44.0","kefszyv1jc","581.2000000005355"," ","1","5"
"","html-button-response","45","42527","0.0-45.0","kefszyv1jc","927.7000000001863"," ","1","9"
"","html-button-response","46","43081","0.0-46.0","kefszyv1jc","550.6999999997788"," ","0","4"
"","html-button-response","47","43697","0.0-47.0","kefszyv1jc","612.3999999981606"," ","0","9"
"","html-button-response","48","44341","0.0-48.0","kefszyv1jc","640.6999999999243"," ","1","8"
"","html-button-response","49","44934","0.0-49.0","kefszyv1jc","589.6000000029744"," ","1","4"
"","html-button-response","50","45525","0.0-50.0","kefszyv1jc","588.4999999980209"," ","1","6"
"","html-button-response","51","46071","0.0-51.0","kefszyv1jc","542.2999999973399"," ","0","5"
"","html-button-response","52","46836","0.0-52.0","kefszyv1jc","761.5000000005239"," ","0","9"
"","html-button-response","53","48113","0.0-53.0","kefszyv1jc","1273.800000002666"," ","0","5"
"","html-button-response","54","48657","0.0-54.0","kefszyv1jc","541.7000000015832"," ","1","2"
"","html-button-response","55","49440","0.0-55.0","kefszyv1jc","779.8000000002503"," ","0","7"
"","html-button-response","56","50010","0.0-56.0","kefszyv1jc","565.8999999977823"," ","1","9"
"","html-button-response","57","50592","0.0-57.0","kefszyv1jc","578.799999999319"," ","0","8"
"","html-button-response","58","51068","0.0-58.0","kefszyv1jc","473.5000000000582"," ","1","5"
"","html-button-response","59","51795","0.0-59.0","kefszyv1jc","723.7000000022817"," ","1","7"
"","html-button-response","60","52413","0.0-60.0","kefszyv1jc","614.1999999999825"," ","1","3"
"true","fullscreen","61","53416","0.0-61.0","kefszyv1jc","","","",""
"true","fullscreen","0","8884","0.0-0.0","ytcluxpl10","","","",""
"","html-button-response","1","9931","0.0-1.0","ytcluxpl10","1028.9000000011583"," ","1","9"
"","html-button-response","2","10711","0.0-2.0","ytcluxpl10","775.8999999969092"," ","1","6"
"","html-button-response","3","11349","0.0-3.0","ytcluxpl10","634.0000000018335"," ","0","5"
"","html-button-response","4","12028","0.0-4.0","ytcluxpl10","675.4999999975553"," ","0","3"
"","html-button-response","5","12659","0.0-5.0","ytcluxpl10","627.4999999986903"," ","0","4"
"","html-button-response","6","13183","0.0-6.0","ytcluxpl10","520.8999999995285"," ","1","5"
"","html-button-response","7","13822","0.0-7.0","ytcluxpl10","635.3999999992084"," ","1","6"
"","html-button-response","8","14369","0.0-8.0","ytcluxpl10","543.0999999989581"," ","0","8"
"","html-button-response","9","15115","0.0-9.0","ytcluxpl10","742.9000000011001"," ","1","7"
"","html-button-response","10","15711","0.0-10.0","ytcluxpl10","592.9000000032829"," ","0","2"
"","html-button-response","11","16390","0.0-11.0","ytcluxpl10","675.8000000008906"," ","0","6"
"","html-button-response","12","16991","0.0-12.0","ytcluxpl10","596.5000000032887"," ","1","4"
"","html-button-response","13","17563","0.0-13.0","ytcluxpl10","568.9000000020314"," ","0","9"
"","html-button-response","14","18103","0.0-14.0","ytcluxpl10","536.0000000000582"," ","1","8"
"","html-button-response","15","18685","0.0-15.0","ytcluxpl10","578.6999999982072"," ","1","5"
"","html-button-response","16","19333","0.0-16.0","ytcluxpl10","645.4000000012456"," ","0","7"
"","html-button-response","17","19898","0.0-17.0","ytcluxpl10","561.7999999994936"," ","1","9"
"","html-button-response","18","20611","0.0-18.0","ytcluxpl10","709.6999999994296"," ","0","7"
"","html-button-response","19","21223","0.0-19.0","ytcluxpl10","608.4999999984575"," ","0","5"
"","html-button-response","20","21876","0.0-20.0","ytcluxpl10","649.7000000017579"," ","1","9"
"","html-button-response","21","22475","0.0-21.0","ytcluxpl10","595.499999999447"," ","1","4"
"","html-button-response","22","23144","0.0-22.0","ytcluxpl10","666.1999999996624"," ","0","8"
"","html-button-response","23","23691","0.0-23.0","ytcluxpl10","543.7000000019907"," ","1","2"
"","html-button-response","24","24240","0.0-24.0","ytcluxpl10","546.0000000020955"," ","0","4"
"","html-button-response","25","24931","0.0-25.0","ytcluxpl10","687.6000000011118"," ","1","6"
"","html-button-response","26","25493","0.0-26.0","ytcluxpl10","558.4999999991851"," ","0","8"
"","html-button-response","27","26074","0.0-27.0","ytcluxpl10","577.8000000027532"," ","1","9"
"","html-button-response","28","26674","0.0-28.0","ytcluxpl10","596.3000000010652"," ","1","5"
"","html-button-response","29","27277","0.0-29.0","ytcluxpl10","600.3000000018801"," ","0","6"
"","html-button-response","30","27867","0.0-30.0","ytcluxpl10","586.2999999990279"," ","1","7"
"","html-button-response","31","28693","0.0-31.0","ytcluxpl10","823.4000000011292"," ","1","6"
"","html-button-response","32","29293","0.0-32.0","ytcluxpl10","596.3000000010652"," ","0","4"
"","html-button-response","33","29977","0.0-33.0","ytcluxpl10","680.900000003021"," ","0","2"
"","html-button-response","34","30892","0.0-34.0","ytcluxpl10","911.8000000016764"," ","0","9"
"","html-button-response","35","31515","0.0-35.0","ytcluxpl10","620.2999999986787"," ","1","5"
"","html-button-response","36","32095","0.0-36.0","ytcluxpl10","576.0999999984051"," ","0","8"
"","html-button-response","37","32601","0.0-37.0","ytcluxpl10","503.19999999919673"," ","1","3"
"","html-button-response","38","33492","0.0-38.0","ytcluxpl10","887.4999999970896"," ","1","7"
"","html-button-response","39","34098","0.0-39.0","ytcluxpl10","603.2000000013795"," ","0","9"
"","html-button-response","40","34663","0.0-40.0","ytcluxpl10","561.6999999983818"," ","1","8"
"","html-button-response","41","35179","0.0-41.0","ytcluxpl10","512.3999999996158"," ","0","6"
"","html-button-response","42","35777","0.0-42.0","ytcluxpl10","594.3000000006577"," ","0","5"
"","html-button-response","43","36377","0.0-43.0","ytcluxpl10","595.3999999983353"," ","0","7"
"","html-button-response","44","36908","0.0-44.0","ytcluxpl10","527.299999997922"," ","1","5"
"","html-button-response","45","37602","0.0-45.0","ytcluxpl10","691.3999999997031"," ","1","9"
"","html-button-response","46","38177","0.0-46.0","ytcluxpl10","571.5999999993073"," ","0","4"
"","html-button-response","47","38847","0.0-47.0","ytcluxpl10","666.9000000001688"," ","0","9"
"","html-button-response","48","39446","0.0-48.0","ytcluxpl10","595.3000000008615"," ","1","8"
"","html-button-response","49","40139","0.0-49.0","ytcluxpl10","690.3000000020256"," ","1","4"
"","html-button-response","50","40769","0.0-50.0","ytcluxpl10","626.4999999984866"," ","1","6"
"","html-button-response","51","41359","0.0-51.0","ytcluxpl10","586.5999999987253"," ","0","5"
"","html-button-response","52","42120","0.0-52.0","ytcluxpl10","757.9999999979918"," ","0","9"
"","html-button-response","53","42866","0.0-53.0","ytcluxpl10","742.6000000014028"," ","0","5"
"","html-button-response","54","43371","0.0-54.0","ytcluxpl10","502.00000000040745"," ","1","2"
"","html-button-response","55","43870","0.0-55.0","ytcluxpl10","495.599999998376"," ","0","7"
"","html-button-response","56","44403","0.0-56.0","ytcluxpl10","528.8000000000466"," ","1","9"
"","html-button-response","57","44934","0.0-57.0","ytcluxpl10","528.4999999967113"," ","0","8"
"","html-button-response","58","45426","0.0-58.0","ytcluxpl10","488.100000002305"," ","1","5"
"","html-button-response","59","45860","0.0-59.0","ytcluxpl10","431.00000000049477"," ","1","7"
"","html-button-response","60","46751","0.0-60.0","ytcluxpl10","887.0000000024447"," ","1","3"
"true","fullscreen","61","47754","0.0-61.0","ytcluxpl10","","","",""
"true","fullscreen","0","12815","0.0-0.0","7ufqgzowuw","","","",""
"","html-button-response","1","14520","0.0-1.0","7ufqgzowuw","1680.6000000000276"," ","1","9"
"","html-button-response","2","15625","0.0-2.0","7ufqgzowuw","1100.900000000025"," ","1","6"
"","html-button-response","3","16502","0.0-3.0","7ufqgzowuw","873.6999999999825"," ","0","5"
"","html-button-response","4","17435","0.0-4.0","7ufqgzowuw","928.7000000000517"," ","0","3"
"","html-button-response","5","18287","0.0-5.0","7ufqgzowuw","848.9000000000706"," ","0","4"
"","html-button-response","6","19084","0.0-6.0","7ufqgzowuw","793.0000000000036"," ","1","5"
"","html-button-response","7","19855","0.0-7.0","7ufqgzowuw","767.2999999999774"," ","1","6"
"","html-button-response","8","20656","0.0-8.0","7ufqgzowuw","797.5000000000146"," ","0","8"
"","html-button-response","9","21411","0.0-9.0","7ufqgzowuw","752.1000000000422"," ","1","7"
"","html-button-response","10","22222","0.0-10.0","7ufqgzowuw","807.0999999999913"," ","0","2"
"","html-button-response","11","23235","0.0-11.0","7ufqgzowuw","1009.8999999999032"," ","0","6"
"","html-button-response","12","23967","0.0-12.0","7ufqgzowuw","728.5999999999149"," ","1","4"
"","html-button-response","13","24760","0.0-13.0","7ufqgzowuw","790.0999999999403"," ","0","9"
"","html-button-response","14","25541","0.0-14.0","7ufqgzowuw","777.4999999999163"," ","1","8"
"","html-button-response","15","26290","0.0-15.0","7ufqgzowuw","745.4999999999927"," ","1","5"
"","html-button-response","16","27049","0.0-16.0","7ufqgzowuw","755.5999999999585"," ","0","7"
"","html-button-response","17","27972","0.0-17.0","7ufqgzowuw","920.3999999999724"," ","1","9"
"","html-button-response","18","28931","0.0-18.0","7ufqgzowuw","955.4000000000524"," ","0","7"
"","html-button-response","19","29718","0.0-19.0","7ufqgzowuw","784.0999999999694"," ","0","5"
"","html-button-response","20","30457","0.0-20.0","7ufqgzowuw","735.7000000000662"," ","1","9"
"","html-button-response","21","31210","0.0-21.0","7ufqgzowuw","749.6999999999607"," ","1","4"
"","html-button-response","22","32093","0.0-22.0","7ufqgzowuw","879.2999999999447"," ","0","8"
"","html-button-response","23","32847","0.0-23.0","7ufqgzowuw","750.5999999999622"," ","1","2"
"","html-button-response","24","33617","0.0-24.0","7ufqgzowuw","767.3999999999578"," ","0","4"
"","html-button-response","25","34420","0.0-25.0","7ufqgzowuw","799.6000000000495"," ","1","6"
"","html-button-response","26","35499","0.0-26.0","7ufqgzowuw","1075.600000000013"," ","0","8"
"","html-button-response","27","36300","0.0-27.0","7ufqgzowuw","798.400000000016"," ","1","9"
"","html-button-response","28","37127","0.0-28.0","7ufqgzowuw","823.200000000048"," ","1","5"
"","html-button-response","29","37841","0.0-29.0","7ufqgzowuw","710.799999999952"," ","0","6"
"","html-button-response","30","38603","0.0-30.0","7ufqgzowuw","759.0000000000146"," ","1","7"
"","html-button-response","31","39414","0.0-31.0","7ufqgzowuw","807.6999999999534"," ","1","6"
"","html-button-response","32","40135","0.0-32.0","7ufqgzowuw","717.9999999999636"," ","0","4"
"","html-button-response","33","40992","0.0-33.0","7ufqgzowuw","853.7000000000044"," ","0","2"
"","html-button-response","34","41845","0.0-34.0","7ufqgzowuw","849.3000000000902"," ","0","9"
"","html-button-response","35","42614","0.0-35.0","7ufqgzowuw","766.1000000000495"," ","1","5"
"","html-button-response","36","43414","0.0-36.0","7ufqgzowuw","797.0999999999985"," ","0","8"
"","html-button-response","37","44110","0.0-37.0","7ufqgzowuw","692.9000000000087"," ","1","3"
"","html-button-response","38","44961","0.0-38.0","7ufqgzowuw","847.6000000000568"," ","1","7"
"","html-button-response","39","45796","0.0-39.0","7ufqgzowuw","831.3999999999141"," ","0","9"
"","html-button-response","40","46563","0.0-40.0","7ufqgzowuw","764.3000000000466"," ","1","8"
"","html-button-response","41","47285","0.0-41.0","7ufqgzowuw","718.2000000000262"," ","0","6"
"","html-button-response","42","48054","0.0-42.0","7ufqgzowuw","765.8999999999869"," ","0","5"
"","html-button-response","43","48832","0.0-43.0","7ufqgzowuw","764.8000000000393"," ","0","7"
"","html-button-response","44","49562","0.0-44.0","7ufqgzowuw","727.0000000000873"," ","1","5"
"","html-button-response","45","50280","0.0-45.0","7ufqgzowuw","714.2000000000044"," ","1","9"
"","html-button-response","46","51001","0.0-46.0","7ufqgzowuw","717.9999999999636"," ","0","4"
"","html-button-response","47","51722","0.0-47.0","7ufqgzowuw","717.8000000000102"," ","0","9"
"","html-button-response","48","52444","0.0-48.0","7ufqgzowuw","718.7000000000189"," ","1","8"
"","html-button-response","49","53299","0.0-49.0","7ufqgzowuw","852.0999999999476"," ","1","4"
"","html-button-response","50","54029","0.0-50.0","7ufqgzowuw","726.6999999999389"," ","1","6"
"","html-button-response","51","54750","0.0-51.0","7ufqgzowuw","717.3000000000247"," ","0","5"
"","html-button-response","52","55576","0.0-52.0","7ufqgzowuw","823.200000000048"," ","0","9"
"","html-button-response","53","56402","0.0-53.0","7ufqgzowuw","822.1999999999462"," ","0","5"
"","html-button-response","54","57107","0.0-54.0","7ufqgzowuw","701.6999999999607"," ","1","2"
"","html-button-response","55","57835","0.0-55.0","7ufqgzowuw","724.6999999999898"," ","0","7"
"","html-button-response","56","58570","0.0-56.0","7ufqgzowuw","732.3999999999869"," ","1","9"
"","html-button-response","57","59292","0.0-57.0","7ufqgzowuw","718.2000000000262"," ","0","8"
"","html-button-response","58","60191","0.0-58.0","7ufqgzowuw","895.6999999999243"," ","0","6"
"","html-button-response","59","60901","0.0-59.0","7ufqgzowuw","707.1000000000859"," ","1","7"
"","html-button-response","60","61639","0.0-60.0","7ufqgzowuw","734.6999999999753"," ","1","3"
"true","fullscreen","61","62642","0.0-61.0","7ufqgzowuw","","","",""
"true","fullscreen","0","18627","0.0-0.0","jss8cdk21f","","","",""
"","html-button-response","1","19782","0.0-1.0","jss8cdk21f","1136.3000000001193"," ","1","9"
"","html-button-response","2","20701","0.0-2.0","jss8cdk21f","915.1000000001659"," ","1","6"
"","html-button-response","3","21662","0.0-3.0","jss8cdk21f","956.9999999994252"," ","0","5"
"","html-button-response","4","22598","0.0-4.0","jss8cdk21f","932.7999999995882"," ","0","3"
"","html-button-response","5","23497","0.0-5.0","jss8cdk21f","894.6999999998297"," ","0","4"
"","html-button-response","6","24362","0.0-6.0","jss8cdk21f","860.7999999994718"," ","1","5"
"","html-button-response","7","25216","0.0-7.0","jss8cdk21f","849.9000000001615"," ","1","6"
"","html-button-response","8","26089","0.0-8.0","jss8cdk21f","869.5999999999913"," ","0","8"
"","html-button-response","9","27051","0.0-9.0","jss8cdk21f","957.6000000006388"," ","1","7"
"","html-button-response","10","27957","0.0-10.0","jss8cdk21f","902.0999999993364"," ","0","2"
"","html-button-response","11","28893","0.0-11.0","jss8cdk21f","932.3000000003958"," ","0","6"
"","html-button-response","12","29799","0.0-12.0","jss8cdk21f","902.1000000002459"," ","1","4"
"","html-button-response","13","30703","0.0-13.0","jss8cdk21f","900.6000000008498"," ","0","9"
"","html-button-response","14","31614","0.0-14.0","jss8cdk21f","907.4000000000524"," ","1","8"
"","html-button-response","15","32495","0.0-15.0","jss8cdk21f","876.6999999998006"," ","1","5"
"","html-button-response","16","33430","0.0-16.0","jss8cdk21f","932.2999999994863"," ","0","7"
"","html-button-response","17","34348","0.0-17.0","jss8cdk21f","913.5999999998603"," ","1","9"
"","html-button-response","18","35225","0.0-18.0","jss8cdk21f","874.0999999999985"," ","0","7"
"","html-button-response","19","36097","0.0-19.0","jss8cdk21f","868.0000000003929"," ","0","5"
"","html-button-response","20","36975","0.0-20.0","jss8cdk21f","874.7999999995955"," ","1","9"
"","html-button-response","21","37890","0.0-21.0","jss8cdk21f","910.7999999996537"," ","1","4"
"","html-button-response","22","38800","0.0-22.0","jss8cdk21f","906.2999999996464"," ","0","8"
"","html-button-response","23","39589","0.0-23.0","jss8cdk21f","786.2000000004628"," ","1","2"
"","html-button-response","24","40459","0.0-24.0","jss8cdk21f","865.6999999993786"," ","0","4"
"","html-button-response","25","41358","0.0-25.0","jss8cdk21f","895.0999999997293"," ","1","6"
"","html-button-response","26","42362","0.0-26.0","jss8cdk21f","1001.0000000002037"," ","0","8"
"","html-button-response","27","43252","0.0-27.0","jss8cdk21f","885.5999999996129"," ","1","9"
"","html-button-response","28","44254","0.0-28.0","jss8cdk21f","998.700000000099"," ","1","5"
"","html-button-response","29","45106","0.0-29.0","jss8cdk21f","848.1000000001586"," ","0","6"
"","html-button-response","30","46008","0.0-30.0","jss8cdk21f","899.000000000342"," ","1","7"
"","html-button-response","31","47000","0.0-31.0","jss8cdk21f","987.7000000005864"," ","1","6"
"","html-button-response","32","47903","0.0-32.0","jss8cdk21f","899.9000000003434"," ","0","4"
"","html-button-response","33","48748","0.0-33.0","jss8cdk21f","841.1999999998443"," ","0","2"
"","html-button-response","34","49677","0.0-34.0","jss8cdk21f","925.600000000486"," ","0","9"
"","html-button-response","35","50577","0.0-35.0","jss8cdk21f","895.900000000438"," ","1","5"
"","html-button-response","36","51450","0.0-36.0","jss8cdk21f","869.7000000001935"," ","0","8"
"","html-button-response","37","52309","0.0-37.0","jss8cdk21f","855.7999999993626"," ","1","3"
"","html-button-response","38","53254","0.0-38.0","jss8cdk21f","940.599999999904"," ","1","7"
"","html-button-response","39","54124","0.0-39.0","jss8cdk21f","866.6000000002896"," ","0","9"
"","html-button-response","40","54921","0.0-40.0","jss8cdk21f","793.7000000001717"," ","1","8"
"","html-button-response","41","55835","0.0-41.0","jss8cdk21f","909.9999999998545"," ","0","6"
"","html-button-response","42","56719","0.0-42.0","jss8cdk21f","880.1000000003114"," ","0","5"
"","html-button-response","43","57642","0.0-43.0","jss8cdk21f","917.8000000001703"," ","0","7"
"","html-button-response","44","58469","0.0-44.0","jss8cdk21f","822.599999999511"," ","1","5"
"","html-button-response","45","59316","0.0-45.0","jss8cdk21f","843.4999999999491"," ","1","9"
"","html-button-response","46","60154","0.0-46.0","jss8cdk21f","833.9999999998327"," ","0","4"
"","html-button-response","47","61041","0.0-47.0","jss8cdk21f","883.8999999998123"," ","0","9"
"","html-button-response","48","61880","0.0-48.0","jss8cdk21f","835.6000000003405"," ","1","8"
"","html-button-response","49","62725","0.0-49.0","jss8cdk21f","840.7999999999447"," ","1","4"
"","html-button-response","50","63500","0.0-50.0","jss8cdk21f","772.1999999994296"," ","1","6"
"","html-button-response","51","64339","0.0-51.0","jss8cdk21f","834.6999999994296"," ","0","5"
"","html-button-response","52","65203","0.0-52.0","jss8cdk21f","860.4000000004817"," ","0","9"
"","html-button-response","53","66071","0.0-53.0","jss8cdk21f","865.0999999999913"," ","0","5"
"","html-button-response","54","66876","0.0-54.0","jss8cdk21f","800.9999999994761"," ","1","2"
"","html-button-response","55","67746","0.0-55.0","jss8cdk21f","866.2999999996973"," ","0","7"
"","html-button-response","56","68584","0.0-56.0","jss8cdk21f","834.2000000002299"," ","1","9"
"","html-button-response","57","69445","0.0-57.0","jss8cdk21f","857.0000000008731"," ","0","8"
"","html-button-response","58","70323","0.0-58.0","jss8cdk21f","875.1999999994878"," ","0","6"
"","html-button-response","59","71177","0.0-59.0","jss8cdk21f","850.4000000002707"," ","1","7"
"","html-button-response","60","71962","0.0-60.0","jss8cdk21f","780.6000000000349"," ","1","3"
"true","fullscreen","61","72965","0.0-61.0","jss8cdk21f","","","",""
"true","fullscreen","0","8630","0.0-0.0","jw0kwnz6ay","","","",""
"","html-button-response","1","10114","0.0-1.0","jw0kwnz6ay","1471.0999999997512"," ","1","9"
"","html-button-response","2","11354","0.0-2.0","jw0kwnz6ay","1234.599999999773"," ","1","6"
"","html-button-response","3","12489","0.0-3.0","jw0kwnz6ay","1131.800000000112"," ","0","5"
"","html-button-response","4","13706","0.0-4.0","jw0kwnz6ay","1212.999999999738"," ","0","3"
"","html-button-response","5","14645","0.0-5.0","jw0kwnz6ay","935.5999999997948"," ","0","4"
"","html-button-response","6","15617","0.0-6.0","jw0kwnz6ay","969.1000000002532"," ","1","5"
"","html-button-response","7","16786","0.0-7.0","jw0kwnz6ay","1164.6999999993568"," ","1","6"
"","html-button-response","8","17783","0.0-8.0","jw0kwnz6ay","993.8000000001921"," ","0","8"
"","html-button-response","9","18818","0.0-9.0","jw0kwnz6ay","1031.5999999993437"," ","1","7"
"","html-button-response","10","19821","0.0-10.0","jw0kwnz6ay","999.8999999997977"," ","0","2"
"","html-button-response","11","20869","0.0-11.0","jw0kwnz6ay","1043.7999999994645"," ","0","6"
"","html-button-response","12","21928","0.0-12.0","jw0kwnz6ay","1056.5999999998894"," ","1","4"
"","html-button-response","13","23110","0.0-13.0","jw0kwnz6ay","1178.299999999581"," ","0","9"
"","html-button-response","14","24312","0.0-14.0","jw0kwnz6ay","1199.399999999514"," ","1","8"
"","html-button-response","15","25382","0.0-15.0","jw0kwnz6ay","1066.4999999999054"," ","1","5"
"","html-button-response","16","26386","0.0-16.0","jw0kwnz6ay","1001.100000000406"," ","0","7"
"","html-button-response","17","33844","0.0-17.0","jw0kwnz6ay","7453.899999999521"," ","1","9"
"","html-button-response","18","35255","0.0-18.0","jw0kwnz6ay","1408.8000000001557"," ","0","7"
"","html-button-response","19","36128","0.0-19.0","jw0kwnz6ay","869.5999999999913"," ","0","5"
"","html-button-response","20","37098","0.0-20.0","jw0kwnz6ay","966.5999999997439"," ","1","9"
"","html-button-response","21","37898","0.0-21.0","jw0kwnz6ay","796.1999999997715"," ","1","4"
"","html-button-response","22","38754","0.0-22.0","jw0kwnz6ay","852.8999999998632"," ","0","8"
"","html-button-response","23","40076","0.0-23.0","jw0kwnz6ay","1319.1999999999098"," ","1","2"
"","html-button-response","24","41104","0.0-24.0","jw0kwnz6ay","1024.8000000001412"," ","0","4"
"","html-button-response","25","42570","0.0-25.0","jw0kwnz6ay","1462.399999999434"," ","1","6"
"","html-button-response","26","43811","0.0-26.0","jw0kwnz6ay","1237.7999999998792"," ","0","8"
"","html-button-response","27","44863","0.0-27.0","jw0kwnz6ay","1049.3999999998778"," ","1","9"
"","html-button-response","28","45961","0.0-28.0","jw0kwnz6ay","1094.000000000051"," ","1","5"
"","html-button-response","29","46866","0.0-29.0","jw0kwnz6ay","899.9000000003434"," ","0","6"
"","html-button-response","30","47886","0.0-30.0","jw0kwnz6ay","1016.4999999997235"," ","1","7"
"","html-button-response","31","48926","0.0-31.0","jw0kwnz6ay","1036.6999999996551"," ","1","6"
"","html-button-response","32","50101","0.0-32.0","jw0kwnz6ay","1171.8000000000757"," ","0","4"
"","html-button-response","33","50996","0.0-33.0","jw0kwnz6ay","891.9999999998254"," ","0","2"
"","html-button-response","34","51944","0.0-34.0","jw0kwnz6ay","944.1999999999098"," ","0","9"
"","html-button-response","35","52999","0.0-35.0","jw0kwnz6ay","1051.5000000004875"," ","1","5"
"","html-button-response","36","53985","0.0-36.0","jw0kwnz6ay","983.0999999994674"," ","0","8"
"","html-button-response","37","55056","0.0-37.0","jw0kwnz6ay","1068.0999999995038"," ","1","3"
"","html-button-response","38","56063","0.0-38.0","jw0kwnz6ay","1003.500000000713"," ","1","7"
"","html-button-response","39","56981","0.0-39.0","jw0kwnz6ay","914.7999999995591"," ","0","9"
"","html-button-response","40","58109","0.0-40.0","jw0kwnz6ay","1124.2000000002008"," ","1","8"
"","html-button-response","41","59290","0.0-41.0","jw0kwnz6ay","1177.2999999993772"," ","0","6"
"","html-button-response","42","60416","0.0-42.0","jw0kwnz6ay","1122.8999999993903"," ","0","5"
"","html-button-response","43","61380","0.0-43.0","jw0kwnz6ay","951.2000000004264"," ","0","7"
"","html-button-response","44","63753","0.0-44.0","jw0kwnz6ay","2369.5000000006985"," ","1","5"
"","html-button-response","45","67789","0.0-45.0","jw0kwnz6ay","4033.0999999996493"," ","1","9"
"","html-button-response","46","68636","0.0-46.0","jw0kwnz6ay","","","",""
"true","fullscreen","0","16756","0.0-0.0","5064xq80vo","","","",""
"","html-button-response","1","17691","0.0-1.0","5064xq80vo","914.8999999997613"," ","1","9"
"","html-button-response","2","18385","0.0-2.0","5064xq80vo","690.999999998894"," ","1","6"
"","html-button-response","3","19292","0.0-3.0","5064xq80vo","902.6000000012573"," ","1","4"
"","html-button-response","4","20605","0.0-4.0","5064xq80vo","1309.4999999993888"," ","0","3"
"","html-button-response","5","21344","0.0-5.0","5064xq80vo","736.1999999993714"," ","0","4"
"","html-button-response","6","21989","0.0-6.0","5064xq80vo","640.9000000003289"," ","1","5"
"","html-button-response","7","22731","0.0-7.0","5064xq80vo","738.7999999991735"," ","1","6"
"","html-button-response","8","23375","0.0-8.0","5064xq80vo","640.7999999992171"," ","0","8"
"","html-button-response","9","24110","0.0-9.0","5064xq80vo","731.2000000001717"," ","1","7"
"","html-button-response","10","24926","0.0-10.0","5064xq80vo","812.3999999988882"," ","0","2"
"","html-button-response","11","25776","0.0-11.0","5064xq80vo","846.9000000004598"," ","0","6"
"","html-button-response","12","26680","0.0-12.0","5064xq80vo","900.7999999994354"," ","1","4"
"","html-button-response","13","27504","0.0-13.0","5064xq80vo","821.29999999961"," ","0","9"
"","html-button-response","14","28246","0.0-14.0","5064xq80vo","738.5000000012951"," ","1","8"
"","html-button-response","15","28959","0.0-15.0","5064xq80vo","709.8000000005413"," ","1","5"
"","html-button-response","16","29757","0.0-16.0","5064xq80vo","795.0000000000728"," ","0","7"
"","html-button-response","17","30533","0.0-17.0","5064xq80vo","772.6000000002387"," ","1","9"
"","html-button-response","18","31708","0.0-18.0","5064xq80vo","1171.199999998862"," ","0","7"
"","html-button-response","19","32559","0.0-19.0","5064xq80vo","847.9999999999563"," ","0","5"
"","html-button-response","20","33195","0.0-20.0","5064xq80vo","632.3999999985972"," ","1","9"
"","html-button-response","21","34075","0.0-21.0","5064xq80vo","877.5999999998021"," ","1","4"
"","html-button-response","22","34696","0.0-22.0","5064xq80vo","617.499999998472"," ","0","8"
"","html-button-response","23","35464","0.0-23.0","5064xq80vo","764.6000000004278"," ","1","2"
"","html-button-response","24","36355","0.0-24.0","5064xq80vo","887.3999999996158"," ","0","4"
"","html-button-response","25","37004","0.0-25.0","5064xq80vo","645.8999999995285"," ","1","6"
"","html-button-response","26","37657","0.0-26.0","5064xq80vo","650.2000000000407"," ","0","8"
"","html-button-response","27","38393","0.0-27.0","5064xq80vo","732.399999998961"," ","1","9"
"","html-button-response","28","40085","0.0-28.0","5064xq80vo","1688.9000000010128"," ","1","5"
"","html-button-response","29","40770","0.0-29.0","5064xq80vo","681.9000000014057"," ","0","6"
"","html-button-response","30","41414","0.0-30.0","5064xq80vo","640.4999999995198"," ","1","7"
"","html-button-response","31","42411","0.0-31.0","5064xq80vo","993.8999999994849"," ","1","6"
"","html-button-response","32","43203","0.0-32.0","5064xq80vo","788.0999999997584"," ","0","4"
"","html-button-response","33","44322","0.0-33.0","5064xq80vo","1116.5000000000873"," ","0","2"
"","html-button-response","34","45481","0.0-34.0","5064xq80vo","1154.8000000002503"," ","0","9"
"","html-button-response","35","46550","0.0-35.0","5064xq80vo","1065.999999998894"," ","1","5"
"","html-button-response","36","47225","0.0-36.0","5064xq80vo","672.3000000001775"," ","0","8"
"","html-button-response","37","48197","0.0-37.0","5064xq80vo","968.7999999987369"," ","1","3"
"","html-button-response","38","49218","0.0-38.0","5064xq80vo","1016.7999999994208"," ","1","7"
"","html-button-response","39","49853","0.0-39.0","5064xq80vo","632.4000000004162"," ","0","9"
"","html-button-response","40","50431","0.0-40.0","5064xq80vo","574.0999999998166"," ","1","8"
"","html-button-response","41","51147","0.0-41.0","5064xq80vo","712.9999999997381"," ","0","6"
"","html-button-response","42","51924","0.0-42.0","5064xq80vo","773.6000000004424"," ","0","5"
"","html-button-response","43","52883","0.0-43.0","5064xq80vo","952.7999999991152"," ","0","7"
"","html-button-response","44","53539","0.0-44.0","5064xq80vo","652.8000000016618"," ","1","5"
"","html-button-response","45","54299","0.0-45.0","5064xq80vo","756.600000000617"," ","1","9"
"","html-button-response","46","55328","0.0-46.0","5064xq80vo","1025.4000000004453"," ","0","4"
"","html-button-response","47","56136","0.0-47.0","5064xq80vo","804.9000000009983"," ","0","9"
"","html-button-response","48","56797","0.0-48.0","5064xq80vo","658.2999999991443"," ","1","8"
"","html-button-response","49","57619","0.0-49.0","5064xq80vo","818.6999999998079"," ","1","4"
"","html-button-response","50","58362","0.0-50.0","5064xq80vo","738.999999999578"," ","1","6"
"","html-button-response","51","59047","0.0-51.0","5064xq80vo","682.2999999985768"," ","0","5"
"","html-button-response","52","59781","0.0-52.0","5064xq80vo","730.2999999992608"," ","1","8"
"","html-button-response","53","61422","0.0-53.0","5064xq80vo","1637.6000000000204"," ","0","5"
"","html-button-response","54","62287","0.0-54.0","5064xq80vo","861.6999999994732"," ","1","2"
"","html-button-response","55","63445","0.0-55.0","5064xq80vo","1155.3000000003522"," ","0","7"
"","html-button-response","56","64344","0.0-56.0","5064xq80vo","895.699999999124"," ","1","9"
"","html-button-response","57","65063","0.0-57.0","5064xq80vo","715.6999999988329"," ","0","8"
"","html-button-response","58","65933","0.0-58.0","5064xq80vo","866.7000000004919"," ","0","6"
"","html-button-response","59","66717","0.0-59.0","5064xq80vo","780.3000000003522"," ","1","7"
"","html-button-response","60","67874","0.0-60.0","5064xq80vo","1154.4000000012602"," ","1","3"
"true","fullscreen","61","68878","0.0-61.0","5064xq80vo","","","",""
"true","fullscreen","0","13489","0.0-0.0","5kr6v9l3k3","","","",""
"","html-button-response","1","15693","0.0-1.0","5kr6v9l3k3","2183.999999999287"," ","1","9"
"","html-button-response","2","16474","0.0-2.0","5kr6v9l3k3","776.7000000003463"," ","1","6"
"","html-button-response","3","17381","0.0-3.0","5kr6v9l3k3","904.1999999990367"," ","0","5"
"","html-button-response","4","18211","0.0-4.0","5kr6v9l3k3","825.7999999987078"," ","0","3"
"","html-button-response","5","18977","0.0-5.0","5kr6v9l3k3","762.6999999993131"," ","0","4"
"","html-button-response","6","19687","0.0-6.0","5kr6v9l3k3","706.2999999998283"," ","1","5"
"","html-button-response","7","20584","0.0-7.0","5kr6v9l3k3","894.1999999988184"," ","1","6"
"","html-button-response","8","21382","0.0-8.0","5kr6v9l3k3","794.5999999992637"," ","0","8"
"","html-button-response","9","22171","0.0-9.0","5kr6v9l3k3","784.9999999998545"," ","1","7"
"","html-button-response","10","22946","0.0-10.0","5kr6v9l3k3","772.3000000005413"," ","0","2"
"","html-button-response","11","23883","0.0-11.0","5kr6v9l3k3","933.100000000195"," ","0","6"
"","html-button-response","12","24681","0.0-12.0","5kr6v9l3k3","794.8000000014872"," ","1","4"
"","html-button-response","13","25472","0.0-13.0","5kr6v9l3k3","788.1000000015774"," ","0","9"
"","html-button-response","14","26318","0.0-14.0","5kr6v9l3k3","842.000000000553"," ","1","8"
"","html-button-response","15","27109","0.0-15.0","5kr6v9l3k3","788.5000000005675"," ","1","5"
"","html-button-response","16","27894","0.0-16.0","5kr6v9l3k3","781.3000000005559"," ","0","7"
"","html-button-response","17","28718","0.0-17.0","5kr6v9l3k3","821.0999999992055"," ","1","9"
"","html-button-response","18","29481","0.0-18.0","5kr6v9l3k3","759.0000000000146"," ","0","7"
"","html-button-response","19","30352","0.0-19.0","5kr6v9l3k3","867.7999999999884"," ","0","5"
"","html-button-response","20","31154","0.0-20.0","5kr6v9l3k3","799.3999999998778"," ","1","9"
"","html-button-response","21","32023","0.0-21.0","5kr6v9l3k3","865.6000000009954"," ","1","4"
"","html-button-response","22","32782","0.0-22.0","5kr6v9l3k3","755.299999998897"," ","0","8"
"","html-button-response","23","33538","0.0-23.0","5kr6v9l3k3","752.8000000002066"," ","1","2"
"","html-button-response","24","34303","0.0-24.0","5kr6v9l3k3","761.899999999514"," ","0","4"
"","html-button-response","25","35110","0.0-25.0","5kr6v9l3k3","804.0999999993801"," ","1","6"
"","html-button-response","26","36096","0.0-26.0","5kr6v9l3k3","982.0000000017899"," ","0","8"
"","html-button-response","27","36854","0.0-27.0","5kr6v9l3k3","755.300000000716"," ","1","9"
"","html-button-response","28","38000","0.0-28.0","5kr6v9l3k3","1142.20000000023"," ","1","5"
"","html-button-response","29","38864","0.0-29.0","5kr6v9l3k3","861.0000000007858"," ","0","6"
"","html-button-response","30","39627","0.0-30.0","5kr6v9l3k3","760.3000000017346"," ","1","7"
"","html-button-response","31","40630","0.0-31.0","5kr6v9l3k3","999.2000000002008"," ","1","6"
"","html-button-response","32","41459","0.0-32.0","5kr6v9l3k3","826.3999999999214"," ","0","4"
"","html-button-response","33","42306","0.0-33.0","5kr6v9l3k3","843.6999999994441"," ","0","2"
"","html-button-response","34","43212","0.0-34.0","5kr6v9l3k3","902.0000000000437"," ","0","9"
"","html-button-response","35","44017","0.0-35.0","5kr6v9l3k3","802.1000000007916"," ","1","5"
"","html-button-response","36","44845","0.0-36.0","5kr6v9l3k3","825.1000000000204"," ","0","8"
"","html-button-response","37","45596","0.0-37.0","5kr6v9l3k3","747.799999999188"," ","1","3"
"","html-button-response","38","46583","0.0-38.0","5kr6v9l3k3","983.5000000002765"," ","1","7"
"","html-button-response","39","47448","0.0-39.0","5kr6v9l3k3","862.1999999995751"," ","0","9"
"","html-button-response","40","48279","0.0-40.0","5kr6v9l3k3","827.7000000016415"," ","1","8"
"","html-button-response","41","49073","0.0-41.0","5kr6v9l3k3","789.9999999990541"," ","0","6"
"","html-button-response","42","49917","0.0-42.0","5kr6v9l3k3","840.7999999999447"," ","0","5"
"","html-button-response","43","50747","0.0-43.0","5kr6v9l3k3","820.4999999998108"," ","0","7"
"","html-button-response","44","51523","0.0-44.0","5kr6v9l3k3","772.3999999998341"," ","1","5"
"","html-button-response","45","52396","0.0-45.0","5kr6v9l3k3","870.1999999993859"," ","1","9"
"","html-button-response","46","53170","0.0-46.0","5kr6v9l3k3","770.699999999124"," ","0","4"
"","html-button-response","47","54032","0.0-47.0","5kr6v9l3k3","858.3999999991647"," ","0","9"
"","html-button-response","48","57013","0.0-48.0","5kr6v9l3k3","2978.2999999988533"," ","1","8"
"","html-button-response","49","58112","0.0-49.0","5kr6v9l3k3","1095.3999999983353"," ","1","4"
"","html-button-response","50","58953","0.0-50.0","5kr6v9l3k3","836.9000000002416"," ","1","6"
"","html-button-response","51","59684","0.0-51.0","5kr6v9l3k3","725.8999999994558"," ","0","5"
"","html-button-response","52","60513","0.0-52.0","5kr6v9l3k3","826.4000000017404"," ","0","9"
"","html-button-response","53","61335","0.0-53.0","5kr6v9l3k3","818.4999999994034"," ","0","5"
"","html-button-response","54","62016","0.0-54.0","5kr6v9l3k3","677.9000000005908"," ","1","2"
"","html-button-response","55","62685","0.0-55.0","5kr6v9l3k3","665.8000000006723"," ","0","7"
"","html-button-response","56","63402","0.0-56.0","5kr6v9l3k3","713.1000000008498"," ","1","9"
"","html-button-response","57","64057","0.0-57.0","5kr6v9l3k3","652.299999999741"," ","0","8"
"","html-button-response","58","64882","0.0-58.0","5kr6v9l3k3","821.0999999992055"," ","0","6"
"","html-button-response","59","65567","0.0-59.0","5kr6v9l3k3","681.8999999995867"," ","1","7"
"","html-button-response","60","66316","0.0-60.0","5kr6v9l3k3","745.1000000000931"," ","1","3"
"true","fullscreen","61","67319","0.0-61.0","5kr6v9l3k3","","","",""
"true","fullscreen","0","6959","0.0-0.0","5owz2tdzlf","","","",""
"","html-button-response","1","8490","0.0-1.0","5owz2tdzlf","1508.0000000016298"," ","1","9"
"","html-button-response","2","9486","0.0-2.0","5owz2tdzlf","992.7999999999884"," ","1","6"
"","html-button-response","3","10442","0.0-3.0","5owz2tdzlf","952.0999999986088"," ","0","5"
"","html-button-response","4","11291","0.0-4.0","5owz2tdzlf","845.4000000019732"," ","0","3"
"","html-button-response","5","12125","0.0-5.0","5owz2tdzlf","830.3000000014435"," ","0","4"
"","html-button-response","6","12958","0.0-6.0","5owz2tdzlf","829.2000000001281"," ","1","5"
"","html-button-response","7","13800","0.0-7.0","5owz2tdzlf","838.9999999999418"," ","1","6"
"","html-button-response","8","14567","0.0-8.0","5owz2tdzlf","763.200000001234"," ","0","8"
"","html-button-response","9","15334","0.0-9.0","5owz2tdzlf","763.7999999969907"," ","1","7"
"","html-button-response","10","16167","0.0-10.0","5owz2tdzlf","830.3999999989173"," ","0","2"
"","html-button-response","11","17114","0.0-11.0","5owz2tdzlf","943.6999999998079"," ","0","6"
"","html-button-response","12","17973","0.0-12.0","5owz2tdzlf","855.5000000014843"," ","1","4"
"","html-button-response","13","18728","0.0-13.0","5owz2tdzlf","751.0000000002037"," ","0","9"
"","html-button-response","14","19616","0.0-14.0","5owz2tdzlf","884.8999999972875"," ","1","8"
"","html-button-response","15","20447","0.0-15.0","5owz2tdzlf","827.7000000016415"," ","1","5"
"","html-button-response","16","21213","0.0-16.0","5owz2tdzlf","762.9999999990105"," ","0","7"
"","html-button-response","17","21990","0.0-17.0","5owz2tdzlf","773.3999999982188"," ","1","9"
"","html-button-response","18","22797","0.0-18.0","5owz2tdzlf","804.2000000023108"," ","0","7"
"","html-button-response","19","23564","0.0-19.0","5owz2tdzlf","763.1000000001222"," ","0","5"
"","html-button-response","20","24347","0.0-20.0","5owz2tdzlf","780.3999999996449"," ","1","9"
"","html-button-response","21","25093","0.0-21.0","5owz2tdzlf","742.6999999988766"," ","1","4"
"","html-button-response","22","25883","0.0-22.0","5owz2tdzlf","786.6999999969266"," ","0","8"
"","html-button-response","23","26612","0.0-23.0","5owz2tdzlf","725.5999999979394"," ","1","2"
"","html-button-response","24","27321","0.0-24.0","5owz2tdzlf","705.4000000025553"," ","0","4"
"","html-button-response","25","28139","0.0-25.0","5owz2tdzlf","814.9999999986903"," ","1","6"
"","html-button-response","26","28914","0.0-26.0","5owz2tdzlf","772.4999999991269"," ","0","8"
"","html-button-response","27","29675","0.0-27.0","5owz2tdzlf","757.499999999709"," ","1","9"
"","html-button-response","28","30564","0.0-28.0","5owz2tdzlf","885.6999999989057"," ","1","5"
"","html-button-response","29","31307","0.0-29.0","5owz2tdzlf","739.1999999999825"," ","0","6"
"","html-button-response","30","33464","0.0-30.0","5owz2tdzlf","2153.9000000011583"," ","1","7"
"","html-button-response","31","34525","0.0-31.0","5owz2tdzlf","1057.3999999978696"," ","1","6"
"","html-button-response","32","35758","0.0-32.0","5owz2tdzlf","1230.199999998149"," ","0","4"
"","html-button-response","33","36485","0.0-33.0","5owz2tdzlf","724.0000000019791"," ","0","2"
"","html-button-response","34","37307","0.0-34.0","5owz2tdzlf","818.200000001525"," ","0","9"
"","html-button-response","35","38269","0.0-35.0","5owz2tdzlf","959.500000000844"," ","1","5"
"","html-button-response","36","39062","0.0-36.0","5owz2tdzlf","789.600000000064"," ","0","8"
"","html-button-response","37","39887","0.0-37.0","5owz2tdzlf","821.5999999993073"," ","1","3"
"","html-button-response","38","40842","0.0-38.0","5owz2tdzlf","951.5000000028522"," ","1","7"
"","html-button-response","39","41772","0.0-39.0","5owz2tdzlf","927.1000000007916"," ","0","9"
"","html-button-response","40","42463","0.0-40.0","5owz2tdzlf","687.7999999996973"," ","1","8"
"","html-button-response","41","43247","0.0-41.0","5owz2tdzlf","780.1999999974214"," ","0","6"
"","html-button-response","42","43975","0.0-42.0","5owz2tdzlf","713.5999999991327"," ","0","5"
"","html-button-response","43","44708","0.0-43.0","5owz2tdzlf","729.3999999965308"," ","0","7"
"","html-button-response","44","45360","0.0-44.0","5owz2tdzlf","648.9000000001397"," ","1","5"
"","html-button-response","45","46093","0.0-45.0","5owz2tdzlf","729.5999999987544"," ","1","9"
"","html-button-response","46","46782","0.0-46.0","5owz2tdzlf","685.3999999984808"," ","0","4"
"","html-button-response","47","47548","0.0-47.0","5owz2tdzlf","762.6999999993131"," ","0","9"
"","html-button-response","48","48267","0.0-48.0","5owz2tdzlf","716.0000000003492"," ","1","8"
"","html-button-response","49","48982","0.0-49.0","5owz2tdzlf","711.5000000012515"," ","1","4"
"","html-button-response","50","49699","0.0-50.0","5owz2tdzlf","714.4000000007509"," ","1","6"
"","html-button-response","51","50394","0.0-51.0","5owz2tdzlf","691.2999999985914"," ","0","5"
"","html-button-response","52","51135","0.0-52.0","5owz2tdzlf","738.1999999997788"," ","0","9"
"","html-button-response","53","52375","0.0-53.0","5owz2tdzlf","1237.200000003213"," ","0","5"
"","html-button-response","54","53191","0.0-54.0","5owz2tdzlf","811.9999999980791"," ","1","2"
"","html-button-response","55","54070","0.0-55.0","5owz2tdzlf","876.2000000024273"," ","0","7"
"","html-button-response","56","54769","0.0-56.0","5owz2tdzlf","696.0999999973865"," ","1","9"
"","html-button-response","57","55454","0.0-57.0","5owz2tdzlf","681.1000000016065"," ","0","8"
"","html-button-response","58","56287","0.0-58.0","5owz2tdzlf","829.5999999972992"," ","0","6"
"","html-button-response","59","56997","0.0-59.0","5owz2tdzlf","707.3999999993248"," ","1","7"
"","html-button-response","60","57712","0.0-60.0","5owz2tdzlf","711.8999999984226"," ","1","3"
"true","fullscreen","61","58716","0.0-61.0","5owz2tdzlf","","","",""
"true","fullscreen","0","22913","0.0-0.0","xn8mq950tz","","","",""
"","html-button-response","1","24247","0.0-1.0","xn8mq950tz","1316.899999997986"," ","1","9"
"","html-button-response","2","25414","0.0-2.0","xn8mq950tz","1164.199999999255"," ","1","6"
"","html-button-response","3","26729","0.0-3.0","xn8mq950tz","1312.5999999974738"," ","0","5"
"","html-button-response","4","27867","0.0-4.0","xn8mq950tz","1133.9000000007218"," ","0","3"
"","html-button-response","5","28833","0.0-5.0","xn8mq950tz","963.1999999983236"," ","0","4"
"","html-button-response","6","29625","0.0-6.0","xn8mq950tz","789.2999999967287"," ","1","5"
"","html-button-response","7","30585","0.0-7.0","xn8mq950tz","957.4000000066007"," ","1","6"
"","html-button-response","8","31436","0.0-8.0","xn8mq950tz","847.69999999844"," ","0","8"
"","html-button-response","9","33241","0.0-9.0","xn8mq950tz","1802.7000000001863"," ","1","7"
"","html-button-response","10","34138","0.0-10.0","xn8mq950tz","893.6999999932596"," ","0","2"
"","html-button-response","11","35771","0.0-11.0","xn8mq950tz","1630.300000004354"," ","0","6"
"","html-button-response","12","36799","0.0-12.0","xn8mq950tz","1025.099999998929"," ","1","4"
"","html-button-response","13","38181","0.0-13.0","xn8mq950tz","1379.6999999976833"," ","0","9"
"","html-button-response","14","39535","0.0-14.0","xn8mq950tz","1351.2999999948079"," ","1","8"
"","html-button-response","15","40592","0.0-15.0","xn8mq950tz","1054.4000000008964"," ","1","5"
"","html-button-response","16","41995","0.0-16.0","xn8mq950tz","1399.7999999992317"," ","0","7"
"","html-button-response","17","42951","0.0-17.0","xn8mq950tz","953.9000000004307"," ","1","9"
"","html-button-response","18","44407","0.0-18.0","xn8mq950tz","1452.7000000016415"," ","0","7"
"","html-button-response","19","45627","0.0-19.0","xn8mq950tz","1217.1999999991385"," ","0","5"
"","html-button-response","20","47175","0.0-20.0","xn8mq950tz","1545.299999997951"," ","1","9"
"","html-button-response","21","48785","0.0-21.0","xn8mq950tz","1607.7000000004773"," ","1","4"
"","html-button-response","22","50139","0.0-22.0","xn8mq950tz","1350.800000000163"," ","0","8"
"","html-button-response","23","51006","0.0-23.0","xn8mq950tz","864.6000000007916"," ","1","2"
"","html-button-response","24","52064","0.0-24.0","xn8mq950tz","1055.2999999999884"," ","0","4"
"","html-button-response","25","53261","0.0-25.0","xn8mq950tz","1194.7000000000116"," ","1","6"
"","html-button-response","26","54293","0.0-26.0","xn8mq950tz","1028.9000000047963"," ","0","8"
"","html-button-response","27","55163","0.0-27.0","xn8mq950tz","867.1000000031199"," ","1","9"
"","html-button-response","28","58352","0.0-28.0","xn8mq950tz","3186.3999999986845"," ","1","5"
"","html-button-response","29","60419","0.0-29.0","xn8mq950tz","2045.5999999976484"," ","0","6"
"","html-button-response","30","61482","0.0-30.0","xn8mq950tz","1059.9999999976717"," ","1","7"
"","html-button-response","31","63758","0.0-31.0","xn8mq950tz","2272.899999996298"," ","1","6"
"","html-button-response","32","64550","0.0-32.0","xn8mq950tz","789.1000000017812"," ","0","4"
"","html-button-response","33","65973","0.0-33.0","xn8mq950tz","1420.0999999957276"," ","0","2"
"","html-button-response","34","67233","0.0-34.0","xn8mq950tz","1257.2000000000116"," ","0","9"
"","html-button-response","35","68182","0.0-35.0","xn8mq950tz","946.4000000007218"," ","1","5"
"","html-button-response","36","68902","0.0-36.0","xn8mq950tz","717.1999999991385"," ","0","8"
"","html-button-response","37","70771","0.0-37.0","xn8mq950tz","1866.3999999989755"," ","1","3"
"","html-button-response","38","71490","0.0-38.0","xn8mq950tz","715.7000000006519"," ","0","6"
"","html-button-response","39","72593","0.0-39.0","xn8mq950tz","1100.5999999979394"," ","0","9"
"","html-button-response","40","73527","0.0-40.0","xn8mq950tz","930.5999999996857"," ","1","8"
"","html-button-response","41","74329","0.0-41.0","xn8mq950tz","800.199999997858"," ","0","6"
"","html-button-response","42","75359","0.0-42.0","xn8mq950tz","1026.4999999999418"," ","0","5"
"","html-button-response","43","77076","0.0-43.0","xn8mq950tz","1713.8000000049942"," ","0","7"
"","html-button-response","44","77899","0.0-44.0","xn8mq950tz","820.2999999994063"," ","1","5"
"","html-button-response","45","79162","0.0-45.0","xn8mq950tz","1260.999999998603"," ","1","9"
"","html-button-response","46","80151","0.0-46.0","xn8mq950tz","986.3999999943189"," ","0","4"
"","html-button-response","47","81348","0.0-47.0","xn8mq950tz","1193.5999999986961"," ","0","9"
"","html-button-response","48","82552","0.0-48.0","xn8mq950tz","1201.600000000326"," ","1","8"
"","html-button-response","49","83355","0.0-49.0","xn8mq950tz","799.8000000006869"," ","0","3"
"","html-button-response","50","84930","0.0-50.0","xn8mq950tz","1572.599999999511"," ","1","6"
"","html-button-response","51","85762","0.0-51.0","xn8mq950tz","828.9000000004307"," ","0","5"
"","html-button-response","52","86908","0.0-52.0","xn8mq950tz","1143.5999999957858"," ","1","8"
"","html-button-response","53","88073","0.0-53.0","xn8mq950tz","1162.1999999988475"," ","0","5"
"","html-button-response","54","89291","0.0-54.0","xn8mq950tz","1214.80000000156"," ","1","2"
"","html-button-response","55","91794","0.0-55.0","xn8mq950tz","2499.7999999977765"," ","0","7"
"","html-button-response","56","93254","0.0-56.0","xn8mq950tz","1457.0000000021537"," ","1","9"
"","html-button-response","57","94211","0.0-57.0","xn8mq950tz","953.9999999979045"," ","0","8"
"","html-button-response","58","98095","0.0-58.0","xn8mq950tz","3881.099999998696"," ","0","6"
"","html-button-response","59","98391","0.0-59.0","xn8mq950tz","294.0999999991618"," ","0","4"
"","html-button-response","60","101569","0.0-60.0","xn8mq950tz","3175.200000005134"," ","1","3"
"true","fullscreen","61","102573","0.0-61.0","xn8mq950tz","","","",""
"true","fullscreen","0","9066","0.0-0.0","tsom34nl48","","","",""
"","html-button-response","1","11423","0.0-1.0","tsom34nl48","2341.499999994994"," ","1","9"
"","html-button-response","2","14116","0.0-2.0","tsom34nl48","2688.899999993737"," ","1","6"
"","html-button-response","3","16397","0.0-3.0","tsom34nl48","2278.8999999975204"," ","0","5"
"","html-button-response","4","18000","0.0-4.0","tsom34nl48","1599.6000000013737"," ","0","3"
"","html-button-response","5","19400","0.0-5.0","tsom34nl48","1397.899999996298"," ","0","4"
"","html-button-response","6","20815","0.0-6.0","tsom34nl48","1411.500000001979"," ","1","5"
"","html-button-response","7","22246","0.0-7.0","tsom34nl48","1428.299999999581"," ","1","6"
"","html-button-response","8","23708","0.0-8.0","tsom34nl48","1459.900000001653"," ","0","8"
"","html-button-response","9","25272","0.0-9.0","tsom34nl48","1561.2999999939348"," ","1","7"
"","html-button-response","10","27273","0.0-10.0","tsom34nl48","1998.0000000068685"," ","0","2"
"","html-button-response","11","30395","0.0-11.0","tsom34nl48","3119.1000000035274"," ","0","6"
"","html-button-response","12","35489","0.0-12.0","tsom34nl48","5091.900000006717"," ","1","4"
"","html-button-response","13","39244","0.0-13.0","tsom34nl48","3751.9000000029337"," ","0","9"
"","html-button-response","14","42759","0.0-14.0","tsom34nl48","3512.399999999616"," ","1","8"
"","html-button-response","15","44224","0.0-15.0","tsom34nl48","1462.7999999938766"," ","1","5"
"","html-button-response","16","45837","0.0-16.0","tsom34nl48","1609.2999999964377"," ","0","7"
"","html-button-response","17","48347","0.0-17.0","tsom34nl48","2507.099999995262"," ","1","9"
"","html-button-response","18","51356","0.0-18.0","tsom34nl48","3006.600000000617"," ","0","7"
"","html-button-response","19","53025","0.0-19.0","tsom34nl48","1665.899999999965"," ","0","5"
"","html-button-response","20","54212","0.0-20.0","tsom34nl48","1184.7999999954482"," ","1","9"
"","html-button-response","21","55473","0.0-21.0","tsom34nl48","1258.0999999991036"," ","1","4"
"","html-button-response","22","58397","0.0-22.0","tsom34nl48","2920.799999999872"," ","0","8"
"","html-button-response","23","61099","0.0-23.0","tsom34nl48","2699.0999999979977"," ","1","2"
"","html-button-response","24","64603","0.0-24.0","tsom34nl48","3501.299999996263"," ","0","4"
"","html-button-response","25","66822","0.0-25.0","tsom34nl48","2216.0000000003492"," ","1","6"
"","html-button-response","26","68348","0.0-26.0","tsom34nl48","1523.4000000054948"," ","0","8"
"","html-button-response","27","69619","0.0-27.0","tsom34nl48","1267.0000000071013"," ","1","9"
"","html-button-response","28","71423","0.0-28.0","tsom34nl48","1795.2000000004773"," ","1","5"
"","html-button-response","29","72881","0.0-29.0","tsom34nl48","1455.1999999966938"," ","0","6"
"","html-button-response","30","74422","0.0-30.0","tsom34nl48","1538.0999999979394"," ","1","7"
"","html-button-response","31","76417","0.0-31.0","tsom34nl48","1991.5999999939231"," ","1","6"
"","html-button-response","32","79248","0.0-32.0","tsom34nl48","2828.300000001036"," ","0","4"
"","html-button-response","33","81086","0.0-33.0","tsom34nl48","1835.3000000061002"," ","0","2"
"","html-button-response","34","83513","0.0-34.0","tsom34nl48","2425.0000000029104"," ","0","9"
"","html-button-response","35","85578","0.0-35.0","tsom34nl48","2061.700000005658"," ","1","5"
"","html-button-response","36","88162","0.0-36.0","tsom34nl48","2580.999999998312"," ","0","8"
"","html-button-response","37","89944","0.0-37.0","tsom34nl48","1779.3999999994412"," ","1","3"
"","html-button-response","38","92108","0.0-38.0","tsom34nl48","2161.3999999972293"," ","1","7"
"","html-button-response","39","94538","0.0-39.0","tsom34nl48","2427.300000003015"," ","0","9"
"","html-button-response","40","96777","0.0-40.0","tsom34nl48","2236.399999994319"," ","1","8"
"","html-button-response","41","98258","0.0-41.0","tsom34nl48","1478.1000000002678"," ","0","6"
"","html-button-response","42","99996","0.0-42.0","tsom34nl48","1735.3000000002794"," ","0","5"
"","html-button-response","43","102034","0.0-43.0","tsom34nl48","2034.6999999965192"," ","0","7"
"","html-button-response","44","103927","0.0-44.0","tsom34nl48","1890.7000000035623"," ","1","5"
"","html-button-response","45","105257","0.0-45.0","tsom34nl48","1326.9000000000233"," ","1","9"
"","html-button-response","46","107115","0.0-46.0","tsom34nl48","1855.4999999978463"," ","0","4"
"","html-button-response","47","109485","0.0-47.0","tsom34nl48","2366.9000000008964"," ","1","6"
"","html-button-response","48","117096","0.0-48.0","tsom34nl48","7608.99999999674"," ","1","8"
"","html-button-response","49","120930","0.0-49.0","tsom34nl48","3829.4999999998254"," ","1","4"
"","html-button-response","50","123749","0.0-50.0","tsom34nl48","2816.2000000011176"," ","1","6"
"","html-button-response","51","125411","0.0-51.0","tsom34nl48","1658.900000002177"," ","0","5"
"","html-button-response","52","126625","0.0-52.0","tsom34nl48","1210.6999999959953"," ","0","9"
"","html-button-response","53","128595","0.0-53.0","tsom34nl48","1967.7000000010594"," ","0","5"
"","html-button-response","54","129626","0.0-54.0","tsom34nl48","1027.699999998731"," ","1","2"
"","html-button-response","55","133330","0.0-55.0","tsom34nl48","3701.6999999977998"," ","0","7"
"","html-button-response","56","135332","0.0-56.0","tsom34nl48","1998.7999999939348"," ","1","9"
"","html-button-response","57","137279","0.0-57.0","tsom34nl48","1944.100000000617"," ","0","8"
"","html-button-response","58","138710","0.0-58.0","tsom34nl48","1428.0999999973574"," ","0","6"
"","html-button-response","59","139840","0.0-59.0","tsom34nl48","1127.3000000001048"," ","1","7"
"","html-button-response","60","141225","0.0-60.0","tsom34nl48","1382.5999999971827"," ","1","3"
"true","fullscreen","61","142229","0.0-61.0","tsom34nl48","","","",""
"true","fullscreen","0","7409","0.0-0.0","nk8qv837s9","","","",""
"","html-button-response","1","8474","0.0-1.0","nk8qv837s9","1053.3000000000357"," ","1","9"
"","html-button-response","2","10106","0.0-2.0","nk8qv837s9","1627.799999999752"," ","1","6"
"","html-button-response","3","11252","0.0-3.0","nk8qv837s9","1143.000000000029"," ","0","5"
"","html-button-response","4","12955","0.0-4.0","nk8qv837s9","1700.2000000002226"," ","0","3"
"","html-button-response","5","15533","0.0-5.0","nk8qv837s9","2574.9000000000706"," ","0","4"
"","html-button-response","6","17106","0.0-6.0","nk8qv837s9","1569.3999999998596"," ","1","5"
"","html-button-response","7","19260","0.0-7.0","nk8qv837s9","2151.4000000001943"," ","1","6"
"","html-button-response","8","20522","0.0-8.0","nk8qv837s9","1259.3999999999141"," ","0","8"
"","html-button-response","9","21423","0.0-9.0","nk8qv837s9","897.8000000001884"," ","1","7"
"","html-button-response","10","23435","0.0-10.0","nk8qv837s9","2007.499999999709"," ","0","2"
"","html-button-response","11","24525","0.0-11.0","nk8qv837s9","1086.2999999999374"," ","1","5"
"","html-button-response","12","26568","0.0-12.0","nk8qv837s9","2039.900000000216"," ","0","3"
"","html-button-response","13","28125","0.0-13.0","nk8qv837s9","1553.3999999997832"," ","0","9"
"","html-button-response","14","31079","0.0-14.0","nk8qv837s9","2951.000000000022"," ","1","8"
"","html-button-response","15","34702","0.0-15.0","nk8qv837s9","3620.3999999997905"," ","1","5"
"","html-button-response","16","36624","0.0-16.0","nk8qv837s9","1919.4000000002197"," ","0","7"
"","html-button-response","17","38239","0.0-17.0","nk8qv837s9","1612.0000000000873"," ","1","9"
"","html-button-response","18","41017","0.0-18.0","nk8qv837s9","2774.4999999999854"," ","0","7"
"","html-button-response","19","42265","0.0-19.0","nk8qv837s9","1245.1999999998443"," ","0","5"
"","html-button-response","20","43911","0.0-20.0","nk8qv837s9","1643.3000000001848"," ","1","9"
"","html-button-response","21","45102","0.0-21.0","nk8qv837s9","1188.0999999998457"," ","1","4"
"","html-button-response","22","46714","0.0-22.0","nk8qv837s9","1609.3000000000757"," ","0","8"
"","html-button-response","23","48490","0.0-23.0","nk8qv837s9","1772.8000000001848"," ","1","2"
"","html-button-response","24","50225","0.0-24.0","nk8qv837s9","1731.7000000002736"," ","0","4"
"","html-button-response","25","52108","0.0-25.0","nk8qv837s9","1879.6000000002095"," ","1","6"
"","html-button-response","26","54121","0.0-26.0","nk8qv837s9","2010.199999999706"," ","0","8"
"","html-button-response","27","55985","0.0-27.0","nk8qv837s9","1861.4000000002343"," ","1","9"
"","html-button-response","28","58764","0.0-28.0","nk8qv837s9","2775.2000000000407"," ","1","5"
"","html-button-response","29","60959","0.0-29.0","nk8qv837s9","2184.2999999998938"," ","0","6"
"","html-button-response","30","63171","0.0-30.0","nk8qv837s9","2208.3999999999796"," ","1","7"
"","html-button-response","31","65076","0.0-31.0","nk8qv837s9","1902.0000000000437"," ","1","6"
"","html-button-response","32","66293","0.0-32.0","nk8qv837s9","1213.7999999999884"," ","0","4"
"","html-button-response","33","67415","0.0-33.0","nk8qv837s9","","","",""
"true","fullscreen","0","25449","0.0-0.0","0l1lsnqfst","","","",""
"","html-button-response","1","27296","0.0-1.0","0l1lsnqfst","1827.499999999418"," ","1","9"
"","html-button-response","2","28499","0.0-2.0","0l1lsnqfst","1198.499999998603"," ","1","6"
"","html-button-response","3","29529","0.0-3.0","0l1lsnqfst","1027.5999999939813"," ","0","5"
"","html-button-response","4","30667","0.0-4.0","0l1lsnqfst","1134.5999999975902"," ","0","3"
"","html-button-response","5","32979","0.0-5.0","0l1lsnqfst","2309.1999999960535"," ","0","4"
"","html-button-response","6","33983","0.0-6.0","0l1lsnqfst","1001.4000000010128"," ","1","5"
"","html-button-response","7","35210","0.0-7.0","0l1lsnqfst","1223.4000000025844"," ","1","6"
"","html-button-response","8","36317","0.0-8.0","0l1lsnqfst","1104.5000000012806"," ","0","8"
"","html-button-response","9","38219","0.0-9.0","0l1lsnqfst","1897.6000000038766"," ","1","7"
"","html-button-response","10","39500","0.0-10.0","0l1lsnqfst","1276.4999999999418"," ","0","2"
"","html-button-response","11","41287","0.0-11.0","0l1lsnqfst","1784.0999999971245"," ","0","6"
"","html-button-response","12","42569","0.0-12.0","0l1lsnqfst","1279.0999999997439"," ","1","4"
"","html-button-response","13","43805","0.0-13.0","0l1lsnqfst","1232.7000000004773"," ","0","9"
"","html-button-response","14","44993","0.0-14.0","0l1lsnqfst","1185.5999999970663"," ","1","8"
"","html-button-response","15","47290","0.0-15.0","0l1lsnqfst","2293.7000000019907"," ","1","5"
"","html-button-response","16","48919","0.0-16.0","0l1lsnqfst","1625.5999999993946"," ","0","7"
"","html-button-response","17","49854","0.0-17.0","0l1lsnqfst","931.6000000035274"," ","1","9"
"","html-button-response","18","51241","0.0-18.0","0l1lsnqfst","1384.3000000051688"," ","0","7"
"","html-button-response","19","52770","0.0-19.0","0l1lsnqfst","1525.4999999961"," ","0","5"
"","html-button-response","20","55320","0.0-20.0","0l1lsnqfst","2545.8999999973457"," ","1","9"
"","html-button-response","21","57225","0.0-21.0","0l1lsnqfst","1901.7000000021653"," ","1","4"
"","html-button-response","22","58171","0.0-22.0","0l1lsnqfst","942.799999997078"," ","0","8"
"","html-button-response","23","59334","0.0-23.0","0l1lsnqfst","1160.5999999956111"," ","1","2"
"","html-button-response","24","60588","0.0-24.0","0l1lsnqfst","1251.1000000013155"," ","0","4"
"","html-button-response","25","61656","0.0-25.0","0l1lsnqfst","1064.8000000001048"," ","1","6"
"","html-button-response","26","64200","0.0-26.0","0l1lsnqfst","2540.899999999965"," ","0","8"
"","html-button-response","27","68267","0.0-27.0","0l1lsnqfst","4063.9999999984866"," ","1","9"
"","html-button-response","28","68471","0.0-28.0","0l1lsnqfst","200.700000001234"," ","1","5"
"","html-button-response","29","70021","0.0-29.0","0l1lsnqfst","1539.8999999961234"," ","0","6"
"","html-button-response","30","71398","0.0-30.0","0l1lsnqfst","1374.600000002829"," ","1","7"
"","html-button-response","31","72494","0.0-31.0","0l1lsnqfst","1092.3000000038883"," ","0","5"
"","html-button-response","32","74178","0.0-32.0","0l1lsnqfst","1681.4000000013039"," ","0","4"
"","html-button-response","33","75323","0.0-33.0","0l1lsnqfst","1141.700000000128"," ","0","2"
"","html-button-response","34","76631","0.0-34.0","0l1lsnqfst","1305.6999999971595"," ","0","9"
"","html-button-response","35","79137","0.0-35.0","0l1lsnqfst","2502.200000002631"," ","1","5"
"","html-button-response","36","80077","0.0-36.0","0l1lsnqfst","937.5"," ","0","8"
"","html-button-response","37","80936","0.0-37.0","0l1lsnqfst","856.4999999944121"," ","1","3"
"","html-button-response","38","81946","0.0-38.0","0l1lsnqfst","1006.1999999961699"," ","0","6"
"","html-button-response","39","83098","0.0-39.0","0l1lsnqfst","1149.3000000045868"," ","0","9"
"","html-button-response","40","84466","0.0-40.0","0l1lsnqfst","1365.5999999973574"," ","1","8"
"","html-button-response","41","85454","0.0-41.0","0l1lsnqfst","","","",""
